t,ax,ay,az 
1.5606092408509E13,-1.6685333,2.7229156,10.215866
1.5606097443909E13,-1.6134338,2.7801056,10.630692
1.560610247931E13,-1.5008698,2.7723236,11.028793
1.560610751471E13,-1.3308411,2.6735992,11.37468
1.5606112550111E13,-1.1278381,2.5554047,11.534393
1.5606117585511E13,-0.9108734,2.4816132,11.430771
1.5606122620911E13,-0.7378998,2.5112762,11.090164
1.5606127656312E13,-0.61657715,2.5669098,10.708542
1.5606132691712E13,-0.51335144,2.5983887,10.514725
1.5606137727113E13,-0.41567993,2.6843414,10.329346
1.5606142762513E13,-0.3911438,2.6974792,10.074188
1.5606147797913E13,-0.4230194,2.6947632,9.81131
1.5606152833314E13,-0.49398804,2.774643,9.60083
1.5606157868714E13,-0.5618286,2.841156,9.376465
1.5606162904115E13,-0.66378784,2.8698578,9.317993
1.5606167939515E13,-0.7612915,2.8757782,9.273285
1.5606172974915E13,-0.84529114,2.8278198,9.250839
1.5606178010316E13,-0.9132385,2.8252258,9.180405
1.5606183045716E13,-0.95747375,2.7927856,9.086197
1.5606188081116E13,-1.0007935,2.6666718,9.083038
1.5606193116517E13,-0.98150635,2.5919037,9.036484
1.5606198151917E13,-0.90901184,2.5835876,8.895859
1.5606203187318E13,-0.9029236,2.5655365,8.765717
1.5606208222718E13,-0.852829,2.639511,8.751099
1.5606213258118E13,-0.67411804,2.793808,8.778641
1.5606218293519E13,-0.3985901,3.0056,8.947601
1.5606223328919E13,-0.14959717,3.1989594,9.21933
1.560622836432E13,-0.052856445,3.34198,9.04776
1.560623339972E13,-0.07723999,3.3333893,8.986496
1.560623843512E13,-0.091812134,3.3362732,8.989227
1.5606243470521E13,-0.16299438,3.23909,8.995972
1.5606248505921E13,-0.25473022,3.1280975,8.961929
1.5606253541322E13,-0.32217407,3.0097198,9.061539
1.5606258576722E13,-0.47802734,2.8328552,9.200058
1.5606263612122E13,-0.6696472,2.6667175,9.340317
1.5606268647523E13,-0.81921387,2.4830627,9.409805
1.5606273682923E13,-0.9358368,2.3950653,9.550079
1.5606278718324E13,-0.99497986,2.3560028,9.647781
1.5606283753724E13,-1.102478,2.308075,9.758469
1.5606288789124E13,-1.1313934,2.314148,9.929504
1.5606293824525E13,-1.0785217,2.3880615,9.931915
1.5606298859925E13,-0.9331665,2.4388733,9.9236145
1.5606303895325E13,-0.8496094,2.4457703,9.877045
1.5606308930726E13,-0.7523041,2.434494,9.822266
1.5606313966126E13,-0.6484833,2.4575958,9.713821
1.5606319001527E13,-0.5937042,2.5083618,9.57695
1.5606324036927E13,-0.5289154,2.5737305,9.460907
1.5606329072327E13,-0.48583984,2.664154,9.40033
1.5606334107728E13,-0.43823242,2.7477264,9.311005
1.5606339143128E13,-0.4404602,2.7683105,9.1796875
1.5606344178529E13,-0.4258728,2.7301788,9.0004425
1.5606349213929E13,-0.48539734,2.6607208,8.931686
1.5606354249329E13,-0.5523529,2.649109,8.921005
1.560635928473E13,-0.6122589,2.7037354,8.899429
1.560636432013E13,-0.6653595,2.7501984,9.010239
1.5606369355531E13,-0.72595215,2.78125,9.279724
1.5606374390931E13,-0.7618866,2.786148,9.474304
1.5606379426331E13,-0.79229736,2.7940826,9.537552
1.5606384461732E13,-0.76052856,2.7872925,9.522217
1.5606389497132E13,-0.69569397,2.723999,9.536621
1.5606394532532E13,-0.6073456,2.7092896,9.561188
1.5606399567933E13,-0.502655,2.7597656,9.570847
1.5606404603333E13,-0.39479065,2.8667603,9.554535
1.5606409638734E13,-0.3578186,2.9514923,9.474533
1.5606414674134E13,-0.3808136,2.9498596,9.405853
1.5606419709534E13,-0.50064087,2.907135,9.420853
1.5606424744935E13,-0.6876373,2.812851,9.463913
1.5606429780335E13,-0.8480377,2.6257324,9.514618
1.5606434815736E13,-0.9981079,2.417923,9.62439
1.5606439851136E13,-1.1678772,2.2583008,9.668686
1.5606444886536E13,-1.3033905,2.115036,9.649475
1.5606449921937E13,-1.3283691,2.0582428,9.641037
1.5606454957337E13,-1.3322144,2.080429,9.591705
1.5606459992738E13,-1.3183289,2.2243347,9.570496
1.5606465028138E13,-1.2501984,2.3555908,9.600235
1.5606470063538E13,-1.210083,2.4631348,9.6392975
1.5606475098939E13,-1.1103363,2.54451,9.58902
1.5606480134339E13,-0.93940735,2.5884857,9.472382
1.560648516974E13,-0.7407379,2.633606,9.36026
1.560649020514E13,-0.54782104,2.6452942,9.2513275
1.560649524054E13,-0.4698944,2.7181854,9.174515
1.5606500275941E13,-0.46902466,2.7593384,9.200882
1.5606505311341E13,-0.5215912,2.7914429,9.199722
1.5606510346741E13,-0.57341003,2.797638,9.160431
1.5606515382142E13,-0.5115509,2.767624,9.143066
1.5606520417542E13,-0.5124817,2.7152405,9.1026
1.5606525452943E13,-0.5750122,2.7071838,8.890839
1.5606530488343E13,-0.66230774,2.630783,8.868118
1.5606535523743E13,-0.75997925,2.5951996,8.752853
1.5606540559144E13,-0.8309326,2.5994873,8.745453
1.5606545594544E13,-0.88067627,2.644455,8.905838
1.5606550629945E13,-0.901886,2.6634064,8.993881
1.5606555665345E13,-0.8550873,2.6347198,9.317276
1.5606560700745E13,-0.7777252,2.6204834,9.71199
1.5606565736146E13,-0.72735596,2.6261444,10.112259
1.5606570771546E13,-0.722229,2.6262054,10.215393
1.5606575806947E13,-0.75697327,2.6180573,10.326279
1.5606580842347E13,-0.8449707,2.560791,10.3063965
1.5606585877747E13,-0.8976593,2.5208435,10.188278
1.5606590913148E13,-0.9851837,2.4579926,10.03566
1.5606595948548E13,-0.9798889,2.3760834,9.665955
1.5606600983949E13,-0.872345,2.4965668,9.411209
1.5606606019349E13,-0.8090668,2.6438751,9.21019
1.5606611054749E13,-0.84690857,2.8033447,9.209076
1.560661609015E13,-0.9032898,2.863083,9.196487
1.560662112555E13,-0.98558044,2.8570404,9.165634
1.560662616095E13,-0.93388367,2.8789673,9.156235
1.5606631196351E13,-0.85362244,2.8339233,9.215271
1.5606636231751E13,-0.88031006,2.7071533,9.240341
1.5606641267152E13,-0.9567108,2.5917053,9.187958
1.5606646302552E13,-1.0556183,2.5326996,9.064133
1.5606651337952E13,-1.1090698,2.5774689,8.855911
1.5606656373353E13,-1.1212311,2.685501,8.728607
1.5606661408753E13,-1.0343933,2.902481,8.676056
1.5606666444154E13,-0.91444397,3.0806274,8.794815
1.5606671479554E13,-0.8438568,3.2349243,8.973068
1.5606676514954E13,-0.76387024,3.341919,9.203644
1.5606681550355E13,-0.6396637,3.3520966,9.427444
1.5606686585755E13,-0.621109,3.2164612,9.669052
1.5606691621156E13,-0.6197815,3.0732422,9.829926
1.5606696656556E13,-0.68440247,2.9255981,9.920181
1.5606701691956E13,-0.775177,2.8015442,9.903503
1.5606706727357E13,-0.81044006,2.800415,9.871735
1.5606711762757E13,-0.76979065,2.8743591,9.844803
1.5606716798157E13,-0.7124939,2.9768982,9.896225
1.5606721833558E13,-0.6557312,3.0431824,10.03064
1.5606726868958E13,-0.56874084,3.1118164,10.1762085
1.5606731904359E13,-0.52589417,3.1705627,10.378326
1.5606736939759E13,-0.47140503,3.1716614,10.60704
1.5606741975159E13,-0.41577148,3.1316986,10.8069
1.560674701056E13,-0.4268036,3.0494995,10.932098
1.560675204596E13,-0.55101013,2.8977509,10.949844
1.5606757081361E13,-0.7955475,2.7432404,10.79303
1.5606762116761E13,-1.0455017,2.626999,10.478668
1.5606767152161E13,-1.1996002,2.615326,10.133133
1.5606772187562E13,-1.3102875,2.6595154,9.761475
1.5606777222962E13,-1.3729858,2.6863708,9.444244
1.5606782258363E13,-1.3890991,2.7360077,9.291077
1.5606787293763E13,-1.3367615,2.783615,9.224472
1.5606792329163E13,-1.207077,2.85437,9.256882
1.5606797364564E13,-1.0591888,2.9120483,9.264954
1.5606802399964E13,-0.90319824,2.9470825,9.242233
1.5606807435365E13,-0.8143616,2.9669952,9.226501
1.5606812470765E13,-0.7814026,2.9663544,9.148209
1.5606817506165E13,-0.73851013,3.0189362,9.018265
1.5606822541566E13,-0.7436371,3.0211945,8.890121
1.5606827576966E13,-0.8169708,3.0175629,8.804794
1.5606832612366E13,-0.87423706,2.9887848,8.843933
1.5606837647767E13,-0.85606384,2.9525757,8.896576
1.5606842683167E13,-0.84065247,2.941452,8.994049
1.5606847718568E13,-0.8174896,2.9443054,9.077057
1.5606852753968E13,-0.82421875,2.8884583,9.167496
1.5606857789368E13,-0.8859558,2.900238,9.202515
1.5606862824769E13,-1.0049133,2.8691406,9.231812
1.5606867860169E13,-1.0388336,2.8515472,9.228088
1.560687289557E13,-0.93374634,2.8457947,9.266815
1.560687793097E13,-0.8279114,2.9411774,9.240112
1.560688296637E13,-0.75024414,3.0063934,9.175858
1.5606888001771E13,-0.763855,3.0159454,9.251343
1.5606893037171E13,-0.68504333,3.0521698,9.371582
1.5606898072572E13,-0.6108551,3.0638275,9.4748535
1.5606903107972E13,-0.5800781,3.1057587,9.649918
1.5606908143372E13,-0.49508667,3.1070862,9.77916
1.5606913178773E13,-0.56684875,3.126007,9.824066
1.5606918214173E13,-0.59646606,3.0857391,9.792923
1.5606923249574E13,-0.6491699,3.0639038,9.703232
1.5606928284974E13,-0.68663025,3.145172,9.529037
1.5606933320374E13,-0.6927948,3.1468658,9.581253
1.5606938355775E13,-0.68478394,3.1710968,9.62468
1.5606943391175E13,-0.7245941,3.0948944,9.739304
1.5606948426575E13,-0.6726074,3.0074615,9.885864
1.5606953461976E13,-0.6900177,2.9317322,9.959747
1.5606958497376E13,-0.65515137,2.9138184,9.969589
1.5606963532777E13,-0.6074066,2.890396,10.028168
1.5606968568177E13,-0.6139679,2.9671936,9.887665
1.5606973603577E13,-0.5865936,3.0019836,9.846359
1.5606978638978E13,-0.59573364,3.0395966,9.781097
1.5606983674378E13,-0.5486145,3.0571747,9.736694
1.5606988709779E13,-0.5273285,3.070877,9.714401
1.5606993745179E13,-0.5553131,3.0334625,9.64415
1.5606998780579E13,-0.60562134,2.9602966,9.569305
1.560700381598E13,-0.6814575,2.9056091,9.520981
1.560700885138E13,-0.7618561,2.8308258,9.481186
1.5607013886781E13,-0.87934875,2.7897186,9.386871
1.5607018922181E13,-0.9053345,2.8032227,9.3983
1.5607023957581E13,-0.89224243,2.884781,9.427536
1.5607028992982E13,-0.8831024,2.957901,9.642624
1.5607034028382E13,-0.7996826,3.0445404,9.798157
1.5607039063782E13,-0.7060852,3.1082458,9.916077
1.5607044099183E13,-0.6294708,3.1034393,10.076263
1.5607049134583E13,-0.6295166,3.0494537,10.173553
1.5607054169984E13,-0.6555481,2.9617462,10.157181
1.5607059205384E13,-0.721756,2.8760986,10.022675
1.5607064240784E13,-0.78778076,2.85083,9.8550415
1.5607069276185E13,-0.8309326,2.8679047,9.715134
1.5607074311585E13,-0.87965393,2.9339294,9.585281
1.5607079346986E13,-0.89704895,2.9891052,9.642746
1.5607084382386E13,-0.9337616,3.0225677,9.853928
1.5607089417786E13,-0.93006897,2.9946747,10.059311
1.5607094453187E13,-0.86865234,2.9354248,10.220963
1.5607099488587E13,-0.83032227,2.850006,10.358719
1.5607104523988E13,-0.8697052,2.7279663,10.440201
1.5607109559388E13,-0.90859985,2.6755219,10.326706
1.5607114594788E13,-0.9192047,2.7035828,10.08194
1.5607119630189E13,-0.9497986,2.7228699,9.891693
1.5607124665589E13,-1.017746,2.7709656,9.836548
1.560712970099E13,-1.054306,2.8339844,9.912064
1.560713473639E13,-1.0048523,2.9196167,10.023514
1.560713977179E13,-0.9064026,2.9383698,10.19043
1.5607144807191E13,-0.82821655,2.9349213,10.401611
1.5607149842591E13,-0.7473755,2.926651,10.533768
1.5607154877991E13,-0.68573,2.929123,10.566879
1.5607159913392E13,-0.67871094,2.8957214,10.476227
1.5607164948792E13,-0.65792847,2.9271088,10.324478
1.5607169984193E13,-0.6517639,2.9628906,10.089371
1.5607175019593E13,-0.6996918,3.0282898,9.878204
1.5607180054993E13,-0.73324585,3.1063385,9.853516
1.5607185090394E13,-0.764801,3.115036,9.967987
1.5607190125794E13,-0.8283386,3.1081238,10.102493
1.5607195161195E13,-0.8395386,3.0120392,10.154236
1.5607200196595E13,-0.86035156,2.8859558,10.219116
1.5607205231995E13,-0.9688873,2.7342377,10.295395
1.5607210267396E13,-1.0805359,2.6727905,10.313675
1.5607215302796E13,-1.1343689,2.5469513,10.328217
1.5607220338197E13,-1.0993652,2.3976288,10.45285
1.5607225373597E13,-1.0096436,2.308075,10.714142
1.5607230408997E13,-0.84820557,2.2261505,11.030167
1.5607235444398E13,-0.69633484,2.157074,11.348022
1.5607240479798E13,-0.558136,2.1885376,11.614334
1.5607245515199E13,-0.41271973,2.220337,11.626526
1.5607250550599E13,-0.2916565,2.2818756,11.496536
1.5607255585999E13,-0.19889832,2.3780975,11.28952
1.56072606214E13,-0.17712402,2.4168243,10.841293
1.56072656568E13,-0.21002197,2.4258118,10.5399475
1.56072706922E13,-0.19906616,2.3970184,10.361374
1.5607275727601E13,-0.21916199,2.3122253,10.20517
1.5607280763001E13,-0.25,2.2255096,10.16449
1.5607285798402E13,-0.18379211,2.1175232,10.217148
1.5607290833802E13,-0.092422485,2.099121,10.386673
1.5607295869202E13,-0.037246704,2.1131287,10.738388
1.5607300904603E13,-0.057495117,2.1259613,11.125168
1.5607305940003E13,-0.014755249,2.1555939,11.479584
1.5607310975404E13,0.017745972,2.090393,11.970551
1.5607316010804E13,-0.013458252,2.0257416,12.258759
1.5607321046204E13,-0.015731812,1.889801,12.528778
1.5607326081605E13,-0.0027770996,1.7404633,12.679428
1.5607331117005E13,0.002090454,1.5663452,12.627121
1.5607336152406E13,-0.071899414,1.4391022,12.418472
1.5607341187806E13,-0.11871338,1.3391724,12.0408325
1.5607346223206E13,-0.16215515,1.2824554,11.633041
1.5607351258607E13,-0.21644592,1.2575989,11.129837
1.5607356294007E13,-0.31333923,1.2317657,10.6662445
1.5607361329407E13,-0.3671112,1.195755,10.236679
1.5607366364808E13,-0.3577881,1.1438446,9.94278
1.5607371400208E13,-0.31097412,1.1603088,9.733826
1.5607376435609E13,-0.20230103,1.2117004,9.48793
1.5607381471009E13,-0.11854553,1.271637,9.233032
1.5607386506409E13,-0.038238525,1.3804321,8.952499
1.560739154181E13,0.026657104,1.4853821,8.718231
1.560739657721E13,0.15109253,1.6396942,8.553879
1.5607401612611E13,0.3511963,1.7342377,8.437897
1.5607406648011E13,0.50775146,1.7941742,8.314423
1.5607411683411E13,0.6564789,1.8695526,8.232132
1.5607416718812E13,0.8117676,1.9450378,8.251831
1.5607421754212E13,0.9530945,1.9888763,8.408966
1.5607426789613E13,1.0505219,2.0402527,8.644531
1.5607431825013E13,1.1408081,2.0692444,8.913361
1.5607436860413E13,1.2144623,2.0177155,9.097977
1.5607441895814E13,1.2359924,1.8959656,9.2005005
1.5607446931214E13,1.2034607,1.7519226,9.2885895
1.5607451966615E13,1.1634216,1.59935,9.382248
1.5607457002015E13,1.1137238,1.4615326,9.437088
1.5607462037415E13,1.0301361,1.3449554,9.368744
1.5607467072816E13,0.9049988,1.3037567,9.221329
1.5607472108216E13,0.73783875,1.2824402,9.098267
1.5607477143616E13,0.5748596,1.2565155,9.01059
1.5607482179017E13,0.44055176,1.2189636,9.03595
1.5607487214417E13,0.2992096,1.1282043,9.1465
1.5607492249818E13,0.18882751,1.0200195,9.237701
1.5607497285218E13,0.09617615,0.94859314,9.39003
1.5607502320618E13,0.06996155,0.9280243,9.550888
1.5607507356019E13,0.06890869,0.9786682,9.676666
1.5607512391419E13,0.09623718,1.1050568,9.841003
1.560751742682E13,0.15072632,1.2332916,10.120972
1.560752246222E13,0.17132568,1.2769012,10.300827
1.560752749762E13,0.1991272,1.3167877,10.329483
1.5607532533021E13,0.19493103,1.2961884,10.370743
1.5607537568421E13,0.1053009,1.2267914,10.439163
1.5607542603822E13,0.052108765,1.1813202,10.45639
1.5607547639222E13,-0.042541504,1.1029663,10.447678
1.5607552674622E13,-0.109298706,1.1007843,10.341446
1.5607557710023E13,-0.14419556,1.0492249,10.223221
1.5607562745423E13,-0.24710083,1.0198975,10.119324
1.5607567780824E13,-0.3945465,1.0320435,10.018051
1.5607572816224E13,-0.539032,0.9834442,9.923065
1.5607577851624E13,-0.73335266,1.0202484,9.771866
1.5607582887025E13,-0.8192749,1.0953217,9.669022
1.5607587922425E13,-0.922287,1.1368561,9.557739
1.5607592957825E13,-0.85520935,1.3254089,9.532211
1.5607597993226E13,-0.7471466,1.5922699,9.482178
1.5607603028626E13,-0.59062195,1.7574005,9.335236
1.5607608064027E13,-0.361557,1.9538574,9.01503
1.5607613099427E13,-0.17425537,2.1513672,8.754654
1.5607618134827E13,-0.0071868896,2.2716827,8.49881
1.5607623170228E13,0.17286682,2.4356842,8.450333
1.5607628205628E13,0.25317383,2.4794464,8.403
1.5607633241029E13,0.2748108,2.5549316,8.43219
1.5607638276429E13,0.2348938,2.5547333,8.470627
1.5607643311829E13,0.23547363,2.4871063,8.586014
1.560764834723E13,0.24736023,2.45047,8.821182
1.560765338263E13,0.30168152,2.4809723,9.068451
1.5607658418031E13,0.31347656,2.4695892,9.224594
1.5607663453431E13,0.21391296,2.4804688,9.294266
1.5607668488831E13,0.16500854,2.4285278,9.302933
1.5607673524232E13,0.09274292,2.3843231,9.295181
1.5607678559632E13,0.0056915283,2.3061218,9.23082
1.5607683595032E13,-0.06724548,2.211914,9.191162
1.5607688630433E13,-0.099365234,2.2253418,9.03186
1.5607693665833E13,-0.08226013,2.2556458,8.98381
1.5607698701234E13,-0.07839966,2.324463,8.940689
1.5607703736634E13,-0.04095459,2.4036102,8.962677
1.5607708772034E13,-0.051101685,2.3966827,9.050522
1.5607713807435E13,-0.05960083,2.358963,9.052414
1.5607718842835E13,-0.03967285,2.3472595,9.0646515
1.5607723878236E13,-2.89917E-4,2.324417,9.096176
1.5607728913636E13,0.026535034,2.2872314,9.06488
1.5607733949036E13,0.057006836,2.270996,9.007584
1.5607738984437E13,0.10429382,2.2963715,8.935608
1.5607744019837E13,0.12168884,2.3650208,8.911423
1.5607749055238E13,0.15361023,2.4350433,8.85318
1.5607754090638E13,0.22035217,2.5160522,8.834671
1.5607759126038E13,0.26713562,2.6015015,8.925552
1.5607764161439E13,0.23587036,2.6141815,9.012909
1.5607769196839E13,0.15800476,2.573166,9.166992
1.560777423224E13,0.06852722,2.4470215,9.2803955
1.560777926764E13,-0.012969971,2.3193665,9.382202
1.560778430304E13,-0.12849426,2.2517548,9.491074
1.5607789338441E13,-0.25849915,2.2203522,9.554443
1.5607794373841E13,-0.33895874,2.2285614,9.589111
1.5607799409241E13,-0.34017944,2.2820587,9.573029
1.5607804444642E13,-0.2767334,2.3720856,9.559525
1.5607809480042E13,-0.1971283,2.4721832,9.571701
1.5607814515443E13,-0.11784363,2.509842,9.590057
1.5607819550843E13,-0.03489685,2.4943542,9.514618
1.5607824586243E13,0.05052185,2.5188446,9.4604645
1.5607829621644E13,0.14266968,2.5623474,9.533508
1.5607834657044E13,0.2346344,2.6307068,9.620834
1.5607839692445E13,0.28935242,2.713562,9.718079
1.5607844727845E13,0.33125305,2.7790222,9.789001
1.5607849763245E13,0.36312866,2.8293457,9.825073
1.5607854798646E13,0.36535645,2.9123688,9.802582
1.5607859834046E13,0.2574005,2.925705,9.753906
1.5607864869447E13,0.054336548,2.865387,9.618118
1.5607869904847E13,-0.08065796,2.8373413,9.486603
1.5607874940247E13,-0.13276672,2.785797,9.318954
1.5607879975648E13,-0.23434448,2.777176,9.069107
1.5607885011048E13,-0.31541443,2.8131256,8.867737
1.5607890046449E13,-0.4039917,2.8057098,8.764862
1.5607895081849E13,-0.44387817,2.850708,8.881638
1.5607900117249E13,-0.5301666,2.8023987,8.951218
1.560790515265E13,-0.49736023,2.738922,9.114288
1.560791018805E13,-0.4697113,2.6780853,9.250931
1.560791522345E13,-0.4072113,2.675766,9.387314
1.5607920258851E13,-0.3462677,2.695816,9.520309
1.5607925294251E13,-0.36557007,2.7131805,9.542648
1.5607930329652E13,-0.30278015,2.7997131,9.578857
1.5607935365052E13,-0.2822113,2.8913422,9.692841
1.5607940400452E13,-0.29093933,2.9555817,9.7771
1.5607945435853E13,-0.3428955,3.006485,9.856689
1.5607950471253E13,-0.27926636,3.0261536,9.838608
1.5607955506654E13,-0.2551422,3.0066986,9.871002
1.5607960542054E13,-0.23728943,2.984375,9.819687
1.5607965577454E13,-0.24180603,3.0109406,9.613861
1.5607970612855E13,-0.25897217,2.990738,9.48851
1.5607975648255E13,-0.31680298,2.999054,9.520279
1.5607980683656E13,-0.37545776,3.0487976,9.499649
1.5607985719056E13,-0.4257202,3.055542,9.513794
1.5607990754456E13,-0.31936646,2.9937744,9.502228
1.5607995789857E13,-0.3120575,3.0138702,9.476578
1.5608000825257E13,-0.3275299,2.9915009,9.4436035
1.5608005860657E13,-0.34959412,2.9693909,9.538483
1.5608010896058E13,-0.3627777,2.969757,9.478592
1.5608015931458E13,-0.32600403,2.9745178,9.370911
1.5608020966859E13,-0.28959656,3.0559845,9.314133
1.5608026002259E13,-0.14987183,3.213562,9.396805
1.5608031037659E13,-0.11256409,3.3270264,9.582245
1.560803607306E13,-0.04071045,3.4042206,9.735199
1.560804110846E13,0.017211914,3.4157257,9.861328
1.5608046143861E13,0.03126526,3.3372345,9.923325
1.5608051179261E13,-0.013626099,3.2463226,10.038086
1.5608056214661E13,-0.030654907,3.174881,10.034515
1.5608061250062E13,-0.1747284,3.0808868,9.973831
1.5608066285462E13,-0.2460022,3.048523,9.92305
1.5608071320863E13,-0.22994995,3.052536,9.921448
1.5608076356263E13,-0.19856262,3.1213226,10.007584
1.5608081391663E13,-0.1546936,3.2123108,10.098572
1.5608086427064E13,-0.07159424,3.248993,10.179886
1.5608091462464E13,0.013397217,3.2389832,10.314972
1.5608096497865E13,0.112716675,3.213379,10.425003
1.5608101533265E13,0.1567688,3.2052917,10.429031
1.5608106568665E13,0.0859375,3.1915283,10.350159
1.5608111604066E13,-0.058380127,3.09758,10.210953
1.5608116639466E13,-0.24206543,2.953125,10.033279
1.5608121674866E13,-0.3534851,2.879715,9.796112
1.5608126710267E13,-0.42182922,2.8927765,9.610443
1.5608131745667E13,-0.47827148,2.936264,9.521408
1.5608136781068E13,-0.50616455,2.9342651,9.503738
1.5608141816468E13,-0.5637207,2.9154663,9.6315155
1.5608146851868E13,-0.55778503,2.9084473,9.867706
1.5608151887269E13,-0.48980713,2.8334198,10.096176
1.5608156922669E13,-0.4326477,2.7197418,10.305664
1.560816195807E13,-0.35256958,2.625183,10.3988495
1.560816699347E13,-0.33113098,2.5777893,10.447922
1.560817202887E13,-0.31388855,2.5332794,10.498703
1.5608177064271E13,-0.32696533,2.551468,10.445435
1.5608182099671E13,-0.34901428,2.6249542,10.375015
1.5608187135072E13,-0.38987732,2.6618347,10.354401
1.5608192170472E13,-0.4520874,2.660263,10.288315
1.5608197205872E13,-0.504364,2.6095428,10.322113
1.5608202241273E13,-0.577652,2.521286,10.368973
1.5608207276673E13,-0.6322937,2.4205627,10.398331
1.5608212312074E13,-0.6750183,2.2825623,10.3199005
1.5608217347474E13,-0.7382965,2.1730957,10.0984955
1.5608222382874E13,-0.79185486,2.135559,9.860947
1.5608227418275E13,-0.85995483,2.1639404,9.64183
1.5608232453675E13,-0.86479187,2.1410828,9.510452
1.5608237489075E13,-0.81188965,2.2198029,9.350357
1.5608242524476E13,-0.7789154,2.2819672,9.183426
1.5608247559876E13,-0.6823578,2.344635,9.107437
1.5608252595277E13,-0.6445923,2.3264618,9.088165
1.5608257630677E13,-0.66026306,2.3023834,9.226425
1.5608262666077E13,-0.6256561,2.206894,9.495605
1.5608267701478E13,-0.5578766,2.1461487,9.750992
1.5608272736878E13,-0.54415894,2.1039124,10.094437
1.5608277772279E13,-0.5237732,2.0235138,10.3237915
1.5608282807679E13,-0.53323364,1.9387054,10.673645
1.5608287843079E13,-0.5487366,1.8091583,11.030777
1.560829287848E13,-0.5026398,1.7291107,11.540329
1.560829791388E13,-0.5169983,1.7334747,12.045563
1.5608302949281E13,-0.47946167,1.7075806,12.37175
1.5608307984681E13,-0.4580841,1.6382141,12.567688
1.5608313020081E13,-0.50367737,1.6097107,12.362564
1.5608318055482E13,-0.53045654,1.6052551,12.001053
1.5608323090882E13,-0.66542053,1.6107941,11.503403
1.5608328126282E13,-0.77334595,1.5772095,10.994568
1.5608333161683E13,-0.86795044,1.4924164,10.673126
1.5608338197083E13,-0.99043274,1.5415039,10.514465
1.5608343232484E13,-1.0358734,1.5626831,10.420898
1.5608348267884E13,-1.0750732,1.4807587,10.432831
1.5608353303284E13,-1.0995941,1.4217987,10.430298
1.5608358338685E13,-1.1625977,1.379837,10.504059
1.5608363374085E13,-1.1160278,1.4030914,10.403427
1.5608368409486E13,-1.0691986,1.4553375,10.118042
1.5608373444886E13,-1.0353699,1.5851593,9.699905
1.5608378480286E13,-0.9729614,1.6414337,9.261093
1.5608383515687E13,-0.88308716,1.7579346,8.790726
1.5608388551087E13,-0.8848114,1.7993774,8.388992
1.5608393586488E13,-0.804657,1.8151093,8.114258
1.5608398621888E13,-0.76516724,1.7969513,7.938553
1.5608403657288E13,-0.78479004,1.779953,7.9787903
1.5608408692689E13,-0.8164673,1.7645264,8.040237
1.5608413728089E13,-0.90008545,1.7104034,8.157349
1.560841876349E13,-0.97969055,1.6741028,8.16333
1.560842379889E13,-0.98698425,1.6499939,8.158615
1.560842883429E13,-0.9924164,1.6210022,8.100128
1.5608433869691E13,-1.0332336,1.6349945,8.098923
1.5608438905091E13,-1.0671234,1.6017609,8.185333
1.5608443940491E13,-1.055954,1.5910797,8.315613
1.5608448975892E13,-0.99134827,1.5560608,8.487457
1.5608454011292E13,-0.8774414,1.5675354,8.652054
1.5608459046693E13,-0.76220703,1.5740051,8.911758
1.5608464082093E13,-0.66682434,1.5566559,9.250244
1.5608469117493E13,-0.5570221,1.5575562,9.675125
1.5608474152894E13,-0.46829224,1.5672455,10.14859
1.5608479188294E13,-0.4411316,1.5586548,10.581146
1.5608484223695E13,-0.43629456,1.53685,10.925171
1.5608489259095E13,-0.46472168,1.4998169,11.258759
1.5608494294495E13,-0.53215027,1.4520874,11.626846
1.5608499329896E13,-0.5709076,1.4218445,11.930725
1.5608504365296E13,-0.6274872,1.4052277,12.098328
1.5608509400697E13,-0.726532,1.3797302,12.155487
1.5608514436097E13,-0.8777313,1.3576202,12.056641
1.5608519471497E13,-1.015091,1.3364258,11.770386
1.5608524506898E13,-1.1061096,1.27948,11.439346
1.5608529542298E13,-1.1419067,1.2461395,11.08168
1.5608534577699E13,-1.1672821,1.2619476,10.707825
1.5608539613099E13,-1.1877441,1.2804718,10.234314
1.5608544648499E13,-1.1747894,1.3248901,9.823257
1.56085496839E13,-1.2744141,1.349823,9.507843
1.56085547193E13,-1.3093567,1.4121857,9.315613
1.56085597547E13,-1.2647705,1.4746552,9.163254
1.5608564790101E13,-1.1816406,1.5269012,8.955383
1.5608569825501E13,-1.0756836,1.5978088,8.838974
1.5608574860902E13,-0.9720764,1.6477509,8.7365265
1.5608579896302E13,-0.9796295,1.6981659,8.654785
1.5608584931702E13,-0.9623108,1.769455,8.588028
1.5608589967103E13,-0.94166565,1.8451385,8.558624
1.5608595002503E13,-0.9464569,1.8558502,8.602493
1.5608600037904E13,-0.96206665,1.8569946,8.688202
1.5608605073304E13,-0.9970703,1.8231201,8.72937
1.5608610108704E13,-1.0785522,1.7024231,8.664612
1.5608615144105E13,-1.1489258,1.6836243,8.655121
1.5608620179505E13,-1.1875305,1.6563873,8.814774
1.5608625214906E13,-1.2384796,1.6699524,8.976868
1.5608630250306E13,-1.2236023,1.695816,9.116058
1.5608635285706E13,-1.2174683,1.7711487,9.324432
1.5608640321107E13,-1.1221008,1.7696686,9.300262
1.5608645356507E13,-1.093811,1.8054047,9.334366
1.5608650391907E13,-1.0353699,1.8398895,9.155701
1.5608655427308E13,-1.0456848,1.8714752,9.048965
1.5608660462708E13,-0.99102783,1.9505768,8.931885
1.5608665498109E13,-0.994751,2.0108185,8.96373
1.5608670533509E13,-0.9393158,2.0707397,9.026291
1.5608675568909E13,-0.8832092,2.120102,9.163208
1.560868060431E13,-0.97743225,2.1367035,9.462692
1.560868563971E13,-1.0307465,2.034256,9.614822
1.5608690675111E13,-1.110199,1.9500732,9.673523
1.5608695710511E13,-1.1708374,1.8396759,9.715332
1.5608700745911E13,-1.2412567,1.7713776,9.728638
1.5608705781312E13,-1.2244263,1.7936401,9.803055
1.5608710816712E13,-1.2263184,1.8960571,9.799683
1.5608715852113E13,-1.2182007,2.0195923,9.7660675
1.5608720887513E13,-1.1730347,2.0884857,9.747726
1.5608725922913E13,-1.0982513,2.1818848,9.69635
1.5608730958314E13,-1.0324249,2.2443848,9.738541
1.5608735993714E13,-0.96409607,2.274887,9.774002
1.5608741029115E13,-0.9705963,2.220642,9.749115
1.5608746064515E13,-1.002945,2.152588,9.705734
1.5608751099915E13,-0.9988251,2.1601257,9.507416
1.5608756135316E13,-0.9902191,2.2432709,9.432159
1.5608761170716E13,-0.9670563,2.374878,9.491852
1.5608766206116E13,-1.0203857,2.4498138,9.556335
1.5608771241517E13,-0.9944916,2.477951,9.579681
1.5608776276917E13,-1.0352936,2.4240417,9.539612
1.5608781312318E13,-1.1003876,2.3646088,9.457901
1.5608786347718E13,-1.1570129,2.2987823,9.375519
1.5608791383118E13,-1.2364502,2.2042542,9.369064
1.5608796418519E13,-1.3770142,2.1130676,9.407562
1.5608801453919E13,-1.5377808,2.0553894,9.425049
1.560880648932E13,-1.5784912,2.0767517,9.343033
1.560881152472E13,-1.502594,2.1653442,9.326904
1.560881656012E13,-1.4316406,2.2710419,9.376556
1.5608821595521E13,-1.4136963,2.3446808,9.437012
1.5608826630921E13,-1.3912354,2.3861542,9.468033
1.5608831666322E13,-1.3618317,2.4020233,9.493408
1.5608836701722E13,-1.3122253,2.389206,9.49823
1.5608841737122E13,-1.2909241,2.3425446,9.568069
1.5608846772523E13,-1.3098907,2.3337555,9.649216
1.5608851807923E13,-1.3472137,2.328537,9.646683
1.5608856843324E13,-1.3895264,2.3565369,9.560654
1.5608861878724E13,-1.4318085,2.4356842,9.428528
1.5608866914124E13,-1.4676666,2.5055847,9.371216
1.5608871949525E13,-1.5028229,2.5310364,9.391632
1.5608876984925E13,-1.4950256,2.5119324,9.409241
1.5608882020325E13,-1.4395752,2.449936,9.472839
1.5608887055726E13,-1.383667,2.4231567,9.518723
1.5608892091126E13,-1.2649078,2.4632568,9.52594
1.5608897126527E13,-1.2220154,2.5147705,9.487396
1.5608902161927E13,-1.2561035,2.6029968,9.465637
1.5608907197327E13,-1.2745361,2.6324158,9.42804
1.5608912232728E13,-1.2861481,2.7117004,9.414108
1.5608917268128E13,-1.1967316,2.7675476,9.409866
1.5608922303529E13,-1.0331726,2.855606,9.489548
1.5608927338929E13,-0.9185791,2.9249725,9.700165
1.5608932374329E13,-0.827713,2.9932709,9.903046
1.560893740973E13,-0.8904724,2.915451,9.998398
1.560894244513E13,-0.91067505,2.8266754,10.150574
1.5608947480531E13,-1.039566,2.6905212,10.258987
1.5608952515931E13,-1.2226868,2.5627747,10.30397
1.5608957551331E13,-1.3999634,2.405899,10.243423
1.5608962586732E13,-1.5370178,2.3320007,10.123016
1.5608967622132E13,-1.5986938,2.2928314,10.007751
1.5608972657532E13,-1.6031799,2.3136902,9.909119
1.5608977692933E13,-1.511322,2.380844,9.920761
1.5608982728333E13,-1.4303436,2.504242,9.981232
1.5608987763734E13,-1.3955536,2.5651093,10.050171
1.5608992799134E13,-1.3146057,2.5713654,10.05748
1.5608997834534E13,-1.2416382,2.612503,9.955093
1.5609002869935E13,-1.0881195,2.5627594,9.827988
1.5609007905335E13,-1.0132294,2.6417694,9.749054
1.5609012940736E13,-0.9600525,2.7809753,9.605331
1.5609017976136E13,-1.0010529,2.8382416,9.498749
1.5609023011536E13,-1.0412598,2.8511658,9.349182
1.5609028046937E13,-0.97024536,2.889511,9.301315
1.5609033082337E13,-0.8737488,2.923172,9.260925
1.5609038117738E13,-0.8568268,2.9001617,9.261948
1.5609043153138E13,-0.917511,2.8374176,9.290741
1.5609048188538E13,-1.0505981,2.7706604,9.36319
1.5609053223939E13,-1.1699982,2.6567535,9.420853
1.5609058259339E13,-1.2465668,2.6743317,9.511932
1.560906329474E13,-1.2552795,2.6973572,9.723282
1.560906833014E13,-1.2865448,2.7223663,9.821106
1.560907336554E13,-1.2861023,2.713089,9.959991
1.5609078400941E13,-1.2654572,2.709381,10.106445
1.5609083436341E13,-1.2083435,2.7152252,10.190369
1.5609088471741E13,-1.1066895,2.7109833,10.1633
1.5609093507142E13,-0.9862976,2.758667,10.130768
1.5609098542542E13,-0.982605,2.8022614,10.068924
1.5609103577943E13,-0.99409485,2.8692932,9.957687
1.5609108613343E13,-0.9635773,2.8620605,9.830795
1.5609113648743E13,-1.0005493,2.9529114,9.765625
1.5609118684144E13,-0.9873047,3.0109558,9.764664
1.5609123719544E13,-0.98023987,3.0519867,9.879654
1.5609128754945E13,-0.9664612,3.1187592,9.892227
1.5609133790345E13,-0.9764099,3.1681366,9.893082
1.5609138825745E13,-1.0093689,3.2191162,9.701523
1.5609143861146E13,-1.0325775,3.2421112,9.336365
1.5609148896546E13,-1.0747681,3.2711792,8.984924
1.5609153931947E13,-1.0960236,3.24263,8.777222
1.5609158967347E13,-1.1286163,3.159378,8.832001
1.5609164002747E13,-1.1380157,3.060089,9.133896
1.5609169038148E13,-1.1095276,2.9431915,9.597412
1.5609174073548E13,-1.0564117,2.7968597,10.054123
1.5609179108949E13,-0.9281616,2.649292,10.491943
1.5609184144349E13,-0.80667114,2.5330353,10.883499
1.5609189179749E13,-0.69226074,2.4798584,11.20256
1.560919421515E13,-0.55978394,2.4774323,11.489197
1.560919925055E13,-0.5227356,2.4360962,11.620453
1.560920428595E13,-0.53782654,2.3641205,11.560684
1.5609209321351E13,-0.56192017,2.257553,11.413467
1.5609214356751E13,-0.59935,2.1198578,11.272079
1.5609219392152E13,-0.62323,2.0204773,11.134399
1.5609224427552E13,-0.6063843,1.9636078,10.960495
1.5609229462952E13,-0.53123474,1.964447,10.741028
1.5609234498353E13,-0.42201233,1.9957733,10.543961
1.5609239533753E13,-0.31417847,2.0639343,10.348785
1.5609244569154E13,-0.21937561,2.1899872,10.2243805
1.5609249604554E13,-0.13487244,2.3620148,10.264694
1.5609254639954E13,-0.028457642,2.4442291,10.347519
1.5609259675355E13,0.013671875,2.4630585,10.350494
1.5609264710755E13,0.029296875,2.3729553,10.369354
1.5609269746156E13,-0.024627686,2.2738953,10.344315
1.5609274781556E13,-0.14135742,2.1831207,10.27124
1.5609279816956E13,-0.25653076,2.11232,10.037247
1.5609284852357E13,-0.41519165,2.04216,9.875473
1.5609289887757E13,-0.5114441,1.9548035,9.753952
1.5609294923157E13,-0.598053,1.8088989,9.736816
1.5609299958558E13,-0.6221924,1.6785889,9.7769165
1.5609304993958E13,-0.67134094,1.5599518,9.896133
1.5609310029359E13,-0.67344666,1.4596863,9.941849
1.5609315064759E13,-0.6782074,1.4496918,9.960144
1.5609320100159E13,-0.7146759,1.4712219,9.845459
1.560932513556E13,-0.66882324,1.5757904,9.784622
1.560933017096E13,-0.5845337,1.6443939,9.751114
1.5609335206361E13,-0.4848938,1.6920166,9.721863
1.5609340241761E13,-0.36517334,1.7446594,9.715134
1.5609345277161E13,-0.31481934,1.8135223,9.678619
1.5609350312562E13,-0.14064026,1.8352661,9.695099
1.5609355347962E13,-0.04815674,1.9149017,9.667923
1.5609360383363E13,-0.013153076,1.9453583,9.621246
1.5609365418763E13,0.094818115,1.9051361,9.440033
1.5609370454163E13,0.15751648,1.9298096,9.266006
1.5609375489564E13,0.22236633,1.983551,9.199585
1.5609380524964E13,0.28077698,1.9832001,9.321243
1.5609385560365E13,0.3419342,1.976944,9.453262
1.5609390595765E13,0.38009644,1.9859314,9.614853
1.5609395631165E13,0.46102905,2.0211945,9.732574
1.5609400666566E13,0.43367004,1.9410248,9.867737
1.5609405701966E13,0.3929901,1.8981323,9.915634
1.5609410737366E13,0.34965515,1.8937988,9.866943
1.5609415772767E13,0.3538208,1.8320618,9.737198
1.5609420808167E13,0.26036072,1.6980286,9.692871
1.5609425843568E13,0.20996094,1.6345673,9.628296
1.5609430878968E13,0.11665344,1.533905,9.5672455
1.5609435914368E13,0.12098694,1.4519806,9.57785
1.5609440949769E13,0.07823181,1.3466492,9.625275
1.5609445985169E13,0.03175354,1.2658234,9.665451
1.560945102057E13,-0.048812866,1.2024231,9.743317
1.560945605597E13,-0.06680298,1.162674,9.818771
1.560946109137E13,-0.13038635,1.1399841,10.0456085
1.5609466126771E13,-0.17897034,1.1238251,10.395401
1.5609471162171E13,-0.17758179,1.1131134,10.731033
1.5609476197572E13,-0.12747192,1.1468353,11.066879
1.5609481232972E13,-0.009140015,1.196106,11.265869
1.5609486268372E13,0.11627197,1.2470703,11.472458
1.5609491303773E13,0.17410278,1.2951202,11.62381
1.5609496339173E13,0.18395996,1.3149719,11.618027
1.5609501374574E13,0.23765564,1.2880859,11.458069
1.5609506409974E13,0.23875427,1.2450409,11.240952
1.5609511445374E13,0.13554382,1.2346802,11.090607
1.5609516480775E13,0.005050659,1.2692261,10.928009
1.5609521516175E13,-0.10118103,1.3420258,10.696381
1.5609526551575E13,-0.18200684,1.4313965,10.544586
1.5609531586976E13,-0.21847534,1.5097656,10.425034
1.5609536622376E13,-0.2567749,1.5979156,10.309708
1.5609541657777E13,-0.28070068,1.6692352,10.230087
1.5609546693177E13,-0.2849121,1.7149963,10.0881195
1.5609551728577E13,-0.26419067,1.7213745,9.885178
1.5609556763978E13,-0.24789429,1.7546387,9.606903
1.5609561799378E13,-0.2701416,1.7859802,9.245071
1.5609566834779E13,-0.303833,1.8188629,8.944672
1.5609571870179E13,-0.3400116,1.8821106,8.703445
1.5609576905579E13,-0.3789215,1.9443054,8.583099
1.560958194098E13,-0.4176941,1.9978485,8.492035
1.560958697638E13,-0.42948914,2.0559692,8.400726
1.5609592011781E13,-0.42684937,2.114029,8.360199
1.5609597047181E13,-0.4152069,2.1567993,8.413467
1.5609602082581E13,-0.3831787,2.2085419,8.470169
1.5609607117982E13,-0.38124084,2.2402344,8.471191
1.5609612153382E13,-0.37127686,2.2521057,8.425537
1.5609617188782E13,-0.35984802,2.265152,8.442184
1.5609622224183E13,-0.34391785,2.3074188,8.471252
1.5609627259583E13,-0.34207153,2.2886353,8.592255
1.5609632294984E13,-0.39814758,2.2404785,8.754639
1.5609637330384E13,-0.43389893,2.2048035,8.821228
1.5609642365784E13,-0.39926147,2.2203522,8.812408
1.5609647401185E13,-0.3715515,2.214859,8.80217
1.5609652436585E13,-0.3576355,2.2042847,8.874573
1.5609657471986E13,-0.34809875,2.2209015,8.98671
1.5609662507386E13,-0.3479004,2.295761,8.959473
1.5609667542786E13,-0.29893494,2.324051,8.950409
1.5609672578187E13,-0.20973206,2.3367615,8.967438
1.5609677613587E13,-0.14964294,2.412323,8.976135
1.5609682648988E13,-0.025527954,2.389328,9.019852
1.5609687684388E13,0.056228638,2.458786,9.02858
1.5609692719788E13,0.12561035,2.5001984,9.053558
1.5609697755189E13,0.12109375,2.5069885,9.16861
1.5609702790589E13,0.093444824,2.5253448,9.206207
1.560970782599E13,0.13153076,2.4937744,9.31691
1.560971286139E13,0.085510254,2.4929504,9.394928
1.560971789679E13,0.10044861,2.4973755,9.3315735
1.5609722932191E13,0.0690918,2.442871,9.278748
1.5609727967591E13,-0.016082764,2.436615,9.25235
1.5609733002991E13,-0.10585022,2.3946533,9.233414
1.5609738038392E13,-0.11468506,2.3823853,9.226181
1.5609743073792E13,-0.1469574,2.4018402,9.29332
1.5609748109193E13,-0.16047668,2.393219,9.357712
1.5609753144593E13,-0.17242432,2.4095154,9.535416
1.5609758179993E13,-0.13845825,2.3919983,9.605621
1.5609763215394E13,-0.16880798,2.4165802,9.7174225
1.5609768250794E13,-0.15562439,2.3976593,9.667877
1.5609773286195E13,-0.11785889,2.387329,9.710114
1.5609778321595E13,-0.13482666,2.410904,9.607239
1.5609783356995E13,-0.1353302,2.4382782,9.527603
1.5609788392396E13,-0.10105896,2.515915,9.453354
1.5609793427796E13,-0.054519653,2.5563202,9.43364
1.5609798463197E13,0.0019836426,2.624176,9.442215
1.5609803498597E13,0.06642151,2.6724854,9.377502
1.5609808533997E13,0.0806427,2.7119293,9.31398
1.5609813569398E13,0.13015747,2.7641754,9.22699
1.5609818604798E13,0.12033081,2.7874146,9.158783
1.5609823640199E13,0.092437744,2.8289032,9.08226
1.5609828675599E13,0.058242798,2.861908,9.065689
1.5609833710999E13,-0.0068511963,2.8758545,9.125473
1.56098387464E13,-0.051132202,2.9085236,9.198486
1.56098437818E13,-0.09080505,2.904953,9.321701
1.56098488172E13,-0.11103821,2.8656769,9.368698
1.5609853852601E13,-0.16627502,2.8148956,9.300156
1.5609858888001E13,-0.23036194,2.7652588,9.220154
1.5609863923402E13,-0.26167297,2.733078,9.0967865
1.5609868958802E13,-0.27905273,2.806961,8.976791
1.5609873994202E13,-0.27696228,2.879776,8.942032
1.5609879029603E13,-0.2515564,2.9518433,8.984314
1.5609884065003E13,-0.18862915,3.028595,9.11528
1.5609889100404E13,-0.14286804,3.0838776,9.284958
1.5609894135804E13,-0.0995636,3.1199493,9.50531
1.5609899171204E13,-0.09303284,3.1145935,9.794052
1.5609904206605E13,-0.13201904,3.0576935,9.986084
1.5609909242005E13,-0.1869049,2.993225,10.037704
1.5609914277406E13,-0.25912476,2.93367,10.004852
1.5609919312806E13,-0.323761,2.9284515,9.939621
1.5609924348206E13,-0.3759613,2.9789276,9.868011
1.5609929383607E13,-0.42236328,3.020996,9.774536
1.5609934419007E13,-0.41966248,3.02594,9.640396
1.5609939454407E13,-0.42436218,3.0168762,9.591431
1.5609944489808E13,-0.41712952,3.0357056,9.652557
1.5609949525208E13,-0.34335327,3.0774384,9.820679
1.5609954560609E13,-0.29077148,3.0942993,9.905945
1.5609959596009E13,-0.26193237,3.1203918,9.883255
1.5609964631409E13,-0.2564392,3.1650848,9.882248
1.560996966681E13,-0.30056763,3.197281,9.830505
1.560997470221E13,-0.28781128,3.232483,9.779861
1.5609979737611E13,-0.2928009,3.2250824,9.732483
1.5609984773011E13,-0.31336975,3.2005463,9.632599
1.5609989808411E13,-0.29104614,3.1587067,9.626297
1.5609994843812E13,-0.31175232,3.1136932,9.675781
1.5609999879212E13,-0.31399536,3.110443,9.678619
1.5610004914613E13,-0.37016296,3.1425323,9.736237
1.5610009950013E13,-0.3840027,3.1774597,9.738739
1.5610014985413E13,-0.34487915,3.2167969,9.780975
1.5610020020814E13,-0.31185913,3.2341614,9.763153
1.5610025056214E13,-0.2933197,3.2687988,9.892471
1.5610030091615E13,-0.32714844,3.2250366,9.899719
1.5610035127015E13,-0.3251953,3.1416779,10.003311
1.5610040162415E13,-0.3070984,3.1202087,10.086563
1.5610045197816E13,-0.3670807,3.1128235,10.200119
1.5610050233216E13,-0.38806152,3.1252594,10.174576
1.5610055268616E13,-0.52090454,3.1557312,9.980499
1.5610060304017E13,-0.5430908,3.140808,9.739761
1.5610065339417E13,-0.64224243,3.182724,9.609268
1.5610070374818E13,-0.67684937,3.125824,9.543579
1.5610075410218E13,-0.68582153,3.0764465,9.5637665
1.5610080445618E13,-0.72891235,2.9854279,9.631424
1.5610085481019E13,-0.6415558,2.8989868,9.942566
1.5610090516419E13,-0.54429626,2.818695,10.264572
1.561009555182E13,-0.51116943,2.7322693,10.64183
1.561010058722E13,-0.43275452,2.7500305,10.836655
1.561010562262E13,-0.5007782,2.7492676,11.033981
1.5610110658021E13,-0.5188904,2.7241058,10.95369
1.5610115693421E13,-0.62864685,2.7418823,10.85347
1.5610120728822E13,-0.6585541,2.7049713,10.591003
1.5610125764222E13,-0.76779175,2.6081543,10.30835
1.5610130799622E13,-0.78685,2.5392456,10.155319
1.5610135835023E13,-0.8110504,2.4813385,9.996735
1.5610140870423E13,-0.88282776,2.3769531,9.851288
1.5610145905824E13,-0.89881897,2.3256378,9.766373
1.5610150941224E13,-0.83529663,2.3508606,9.810043
1.5610155976624E13,-0.8276825,2.3977814,9.8658905
1.5610161012025E13,-0.76638794,2.447525,9.921478
1.5610166047425E13,-0.752594,2.4828491,9.942856
1.5610171082825E13,-0.6492615,2.486969,9.8993225
1.5610176118226E13,-0.649353,2.5073395,9.789185
1.5610181153626E13,-0.67170715,2.4318695,9.786453
1.5610186189027E13,-0.7215576,2.3481445,9.822266
1.5610191224427E13,-0.7496338,2.2994537,9.950699
1.5610196259827E13,-0.71543884,2.2306366,10.20076
1.5610201295228E13,-0.6505585,2.1644745,10.418472
1.5610206330628E13,-0.54956055,2.186905,10.576736
1.5610211366029E13,-0.48883057,2.1860352,10.628372
1.5610216401429E13,-0.4408722,2.2169037,10.68338
1.5610221436829E13,-0.3844452,2.2417908,10.719086
1.561022647223E13,-0.36645508,2.2784882,10.785126
1.561023150763E13,-0.30697632,2.2747498,10.901047
1.5610236543031E13,-0.2513733,2.2436523,11.0660095
1.5610241578431E13,-0.17771912,2.219818,11.2434845
1.5610246613831E13,-0.11050415,2.1837616,11.372101
1.5610251649232E13,-0.095718384,2.1575775,11.447647
1.5610256684632E13,-0.12702942,2.094284,11.501251
1.5610261720032E13,-0.18617249,2.0030212,11.515549
1.5610266755433E13,-0.20474243,1.9958649,11.413376
1.5610271790833E13,-0.16877747,1.9801636,11.27449
1.5610276826234E13,-0.15969849,2.002655,11.185928
1.5610281861634E13,-0.19197083,2.008484,11.068314
1.5610286897034E13,-0.26756287,1.9654541,10.956253
1.5610291932435E13,-0.3265381,1.8760223,10.839783
1.5610296967835E13,-0.369812,1.8069,10.6614685
1.5610302003236E13,-0.42747498,1.7667999,10.437561
1.5610307038636E13,-0.5188141,1.7306976,10.196838
1.5610312074036E13,-0.61538696,1.7178192,9.987259
1.5610317109437E13,-0.7031555,1.7201233,9.714981
1.5610322144837E13,-0.7426758,1.6963501,9.411087
1.5610327180238E13,-0.7051239,1.6842804,9.149353
1.5610332215638E13,-0.6781769,1.6871185,8.883636
1.5610337251038E13,-0.6726227,1.702713,8.7391815
1.5610342286439E13,-0.658432,1.6836243,8.657272
1.5610347321839E13,-0.63305664,1.7176056,8.516312
1.561035235724E13,-0.5888977,1.736908,8.342957
1.561035739264E13,-0.6042633,1.7499237,8.211655
1.561036242804E13,-0.6160126,1.7546082,8.104874
1.5610367463441E13,-0.5533447,1.8029938,8.014725
1.5610372498841E13,-0.47494507,1.7932434,7.9745026
1.5610377534241E13,-0.5432129,1.8066559,7.813095
1.5610382569642E13,-0.5619812,1.780365,7.673279
1.5610387605042E13,-0.4815216,1.8340149,7.6283417
1.5610392640443E13,-0.42237854,1.9077148,7.7026825
1.5610397675843E13,-0.37986755,1.8946838,7.895706
1.5610402711243E13,-0.37478638,1.8993378,8.10614
1.5610407746644E13,-0.3925171,1.9498291,8.314606
1.5610412782044E13,-0.30818176,1.9203033,8.539246
1.5610417817445E13,-0.34518433,1.956665,8.730667
1.5610422852845E13,-0.33172607,1.8698273,8.861877
1.5610427888245E13,-0.38475037,1.8432617,8.948166
1.5610432923646E13,-0.44534302,1.8567352,8.932449
1.5610437959046E13,-0.4859314,1.8393097,8.968185
1.5610442994447E13,-0.60165405,1.7377167,9.000259
1.5610448029847E13,-0.6593323,1.6851959,9.203461
1.5610453065247E13,-0.64842224,1.6677856,9.3181
1.5610458100648E13,-0.6542969,1.5910034,9.443695
1.5610463136048E13,-0.6897278,1.5447693,9.518143
1.5610468171449E13,-0.65237427,1.5273285,9.540802
1.5610473206849E13,-0.66993713,1.5733643,9.534119
1.5610478242249E13,-0.6907501,1.6206055,9.606262
1.561048327765E13,-0.6292267,1.6819305,9.605682
1.561048831305E13,-0.5859833,1.7593842,9.664337
1.561049334845E13,-0.54704285,1.7705231,9.782242
1.5610498383851E13,-0.5527191,1.7813263,9.917526
1.5610503419251E13,-0.5951233,1.771286,10.182373
1.5610508454652E13,-0.5709839,1.6925049,10.567368
1.5610513490052E13,-0.5848999,1.6496582,10.967392
1.5610518525452E13,-0.52864075,1.6347809,11.291
1.5610523560853E13,-0.55558777,1.6100006,11.547592
1.5610528596253E13,-0.63430786,1.5719147,11.825348
1.5610533631654E13,-0.72532654,1.5480957,11.945587
1.5610538667054E13,-0.7798157,1.5600739,11.975449
1.5610543702454E13,-0.8185272,1.5610046,11.782318
1.5610548737855E13,-0.8909149,1.5884705,11.579971
1.5610553773255E13,-0.92684937,1.566864,11.257126
1.5610558808656E13,-0.9283447,1.549881,10.783539
1.5610563844056E13,-0.93862915,1.5668182,10.368469
1.5610568879456E13,-0.9347229,1.6523743,10.00325
1.5610573914857E13,-0.8847809,1.7004852,9.648651
1.5610578950257E13,-0.80892944,1.7903137,9.313995
1.5610583985657E13,-0.7785492,1.8454895,8.993454
1.5610589021058E13,-0.740448,1.9024353,8.78923
1.5610594056458E13,-0.6858978,2.0337982,8.705002
1.5610599091859E13,-0.64120483,2.1309662,8.579788
1.5610604127259E13,-0.59033203,2.157318,8.460251
1.5610609162659E13,-0.5268097,2.1826172,8.37236
1.561061419806E13,-0.48995972,2.239029,8.306046
1.561061923346E13,-0.45832825,2.2771149,8.229492
1.5610624268861E13,-0.39460754,2.3011322,8.214493
1.5610629304261E13,-0.3913269,2.3171844,8.301224
1.5610634339661E13,-0.41589355,2.3120422,8.444946
1.5610639375062E13,-0.4589386,2.2815704,8.647293
1.5610644410462E13,-0.47320557,2.273346,8.919815
1.5610649445863E13,-0.5068817,2.2734528,9.1058655
1.5610654481263E13,-0.5206604,2.2223053,9.235001
1.5610659516663E13,-0.5961151,2.1993713,9.373932
1.5610664552064E13,-0.66567993,2.156128,9.506119
1.5610669587464E13,-0.6791687,2.1498413,9.572189
1.5610674622865E13,-0.7070465,2.190094,9.605972
1.5610679658265E13,-0.7127075,2.1962433,9.665146
1.5610684693665E13,-0.63768005,2.2336578,9.613205
1.5610689729066E13,-0.5945587,2.2872772,9.541977
1.5610694764466E13,-0.54125977,2.3238678,9.453766
1.5610699799866E13,-0.49919128,2.41745,9.372833
1.5610704835267E13,-0.43675232,2.4760895,9.307938
1.5610709870667E13,-0.38523865,2.611435,9.160126
1.5610714906068E13,-0.3729248,2.670105,9.123352
1.5610719941468E13,-0.3060913,2.734253,9.092117
1.5610724976868E13,-0.31588745,2.7777405,9.064087
1.5610730012269E13,-0.30056763,2.8082733,9.127365
1.5610735047669E13,-0.24812317,2.8454742,9.176804
1.561074008307E13,-0.25834656,2.8135223,9.329651
1.561074511847E13,-0.2928772,2.8051758,9.42421
1.561075015387E13,-0.3047638,2.7297974,9.579315
1.5610755189271E13,-0.3635559,2.6836243,9.640213
1.5610760224671E13,-0.48962402,2.712616,9.725647
1.5610765260072E13,-0.5698395,2.5832367,9.770767
1.5610770295472E13,-0.6561737,2.5529327,9.769623
1.5610775330872E13,-0.6908722,2.5832062,9.745926
1.5610780366273E13,-0.74523926,2.5771942,9.688065
1.5610785401673E13,-0.6976776,2.6529236,9.639954
1.5610790437074E13,-0.67523193,2.673111,9.595062
1.5610795472474E13,-0.61465454,2.6557312,9.693268
1.5610800507874E13,-0.56855774,2.6746826,9.738571
1.5610805543275E13,-0.5505371,2.7206116,9.832413
1.5610810578675E13,-0.5211334,2.740921,9.796097
1.5610815614075E13,-0.5074158,2.7708435,9.874344
1.5610820649476E13,-0.46180725,2.8081665,9.960297
1.5610825684876E13,-0.44659424,2.8248444,10.014008
1.5610830720277E13,-0.4360199,2.8210602,10.051392
1.5610835755677E13,-0.4383545,2.8503876,10.038574
1.5610840791077E13,-0.47157288,2.8748627,10.013016
1.5610845826478E13,-0.5255585,2.8699188,10.017426
1.5610850861878E13,-0.54145813,2.8671722,10.076782
1.5610855897279E13,-0.5694275,2.819397,10.089554
1.5610860932679E13,-0.6732178,2.7588806,10.025299
1.5610865968079E13,-0.72753906,2.6532135,9.979919
1.561087100348E13,-0.7595062,2.6092072,9.955826
1.561087603888E13,-0.8179779,2.5871582,9.967911
1.5610881074281E13,-0.86750793,2.5683594,9.900513
1.5610886109681E13,-0.8850708,2.60112,9.786423
1.5610891145081E13,-0.88978577,2.6491547,9.826111
1.5610896180482E13,-0.9146118,2.6579895,9.85611
1.5610901215882E13,-0.8834076,2.6756592,9.954208
1.5610906251282E13,-0.85899353,2.69664,9.983414
1.5610911286683E13,-0.81921387,2.6996613,10.005341
1.5610916322083E13,-0.7948303,2.7399597,9.981888
1.5610921357484E13,-0.8303833,2.7252655,9.936539
1.5610926392884E13,-0.85391235,2.696991,9.842056
1.5610931428284E13,-0.8869324,2.6992035,9.70433
1.5610936463685E13,-0.92489624,2.6870422,9.634903
1.5610941499085E13,-0.95376587,2.6716766,9.577774
1.5610946534486E13,-0.9571533,2.693863,9.498215
1.5610951569886E13,-0.92562866,2.7154083,9.463913
1.5610956605286E13,-0.9015503,2.789154,9.372223
1.5610961640687E13,-0.8523102,2.8827057,9.3497925
1.5610966676087E13,-0.77534485,2.9477692,9.401947
1.5610971711488E13,-0.74375916,3.0252686,9.461319
1.5610976746888E13,-0.74079895,3.0487213,9.562073
1.5610981782288E13,-0.75512695,3.0249634,9.656876
1.5610986817689E13,-0.76068115,2.9949188,9.694321
1.5610991853089E13,-0.7891083,2.939499,9.705399
1.561099688849E13,-0.82347107,2.9170227,9.722443
1.561100192389E13,-0.8575134,2.8944855,9.787811
1.561100695929E13,-0.9039612,2.9034882,9.786957
1.5611011994691E13,-0.9323273,2.9341583,9.811768
1.5611017030091E13,-0.9321594,2.9493103,9.872757
1.5611022065491E13,-0.91096497,3.0051575,9.907486
1.5611027100892E13,-0.91700745,3.0582428,9.845963
1.5611032136292E13,-0.9376831,3.073761,9.738403
1.5611037171693E13,-0.9206238,3.04747,9.535965
1.5611042207093E13,-0.9088745,3.032669,9.386581
1.5611047242493E13,-0.81277466,3.0254364,9.366913
1.5611052277894E13,-0.6559448,2.9922333,9.512482
1.5611057313294E13,-0.49157715,2.953476,9.803894
1.5611062348695E13,-0.37225342,2.9050598,10.305038
1.5611067384095E13,-0.2649994,2.8482666,10.936722
1.5611072419495E13,-0.26382446,2.8043365,11.566605
1.5611077454896E13,-0.20248413,2.746933,11.977325
1.5611082490296E13,-0.24473572,2.701065,12.208023
1.5611087525697E13,-0.34840393,2.6271973,12.274551
1.5611092561097E13,-0.48158264,2.4916534,12.21994
1.5611097596497E13,-0.6233978,2.3076935,12.1362
1.5611102631898E13,-0.68014526,2.1131744,11.837189
1.5611107667298E13,-0.6928711,1.9950714,11.584137
1.5611112702699E13,-0.68440247,1.9769897,11.240936
1.5611117738099E13,-0.5963745,2.0041656,11.012573
1.5611122773499E13,-0.54463196,2.1139374,10.707947
1.56111278089E13,-0.4275818,2.1546936,10.444824
1.56111328443E13,-0.32618713,2.2123108,10.2539215
1.56111378797E13,-0.21156311,2.2516937,10.047256
1.5611142915101E13,-0.15184021,2.2072144,9.873703
1.5611147950501E13,-0.05142212,2.2049866,9.791122
1.5611152985902E13,-0.055847168,2.099945,9.842987
1.5611158021302E13,-0.027801514,2.0148926,9.959213
1.5611163056702E13,-0.06591797,1.9055939,10.140152
1.5611168079973E13,-0.077545166,1.8491364,10.402527
1.5611173115373E13,-0.10209656,1.7135773,10.529877
1.5611178150774E13,-0.09188843,1.6792908,10.76239
1.5611183186174E13,-0.06715393,1.5691833,10.939926
1.5611188221574E13,-0.08950806,1.5278625,11.080841
1.5611193256975E13,-0.1424408,1.4585419,11.031128
1.5611198292375E13,-0.15242004,1.4476013,10.898819
1.5611203327776E13,-0.15675354,1.4680023,10.79747
1.5611208363176E13,-0.09234619,1.4382324,10.667618
1.5611213398576E13,-0.045455933,1.4650116,10.49585
1.5611218433977E13,-0.040252686,1.415863,10.351105
1.5611223469377E13,-0.029327393,1.3498383,10.175217
1.5611228504777E13,-0.03590393,1.2645111,10.030167
1.5611233540178E13,-0.058258057,1.2605896,9.888199
1.5611238575578E13,-0.07392883,1.2398071,9.6597595
1.5611243610979E13,-0.092803955,1.304657,9.370529
1.5611248646379E13,-0.11979675,1.2971802,9.143234
1.5611253681779E13,-0.07495117,1.3075867,8.920273
1.561125871718E13,0.031433105,1.300354,8.781342
1.561126375258E13,0.12142944,1.2731476,8.755768
1.5611268787981E13,0.23146057,1.259079,8.81572
1.5611273823381E13,0.3802948,1.2527771,8.942734
1.5611278858781E13,0.53071594,1.265686,9.017822
1.5611283894182E13,0.6464386,1.2765656,9.059891
1.5611288929582E13,0.7219696,1.2838745,9.057297
1.5611293964983E13,0.7620392,1.2749481,9.086777
1.5611299000383E13,0.7884979,1.2408295,9.115677
1.5611304035783E13,0.78364563,1.2469025,9.169418
1.5611309071184E13,0.76083374,1.2037354,9.3358
1.5611314106584E13,0.7762451,1.1548767,9.480423
1.5611319141985E13,0.7733917,1.1217957,9.542252
1.5611324177385E13,0.7057953,1.0631104,9.585373
1.5611329212785E13,0.5965271,0.9689636,9.637802
1.5611334248186E13,0.49414063,0.901947,9.689713
1.5611339283586E13,0.4355774,0.83854675,9.727524
1.5611344318986E13,0.40040588,0.7681885,9.748245
1.5611349354387E13,0.34036255,0.7324829,9.791275
1.5611354389787E13,0.31007385,0.74253845,9.771378
1.5611359425188E13,0.33615112,0.8231659,9.777908
1.5611364460588E13,0.32470703,0.918396,9.876236
1.5611369495988E13,0.29660034,0.95051575,9.99028
1.5611374531389E13,0.29945374,0.9691925,10.051193
1.5611379566789E13,0.28559875,0.96832275,10.027405
1.561138460219E13,0.24617004,0.9631653,10.061295
1.561138963759E13,0.23013306,1.0161896,10.1753235
1.561139467299E13,0.23901367,1.0883179,10.313675
1.5611399708391E13,0.24203491,1.186676,10.474777
1.5611404743791E13,0.22546387,1.250946,10.509125
1.5611409779192E13,0.24116516,1.2959442,10.462631
1.5611414814592E13,0.17076111,1.3652649,10.376099
1.5611419849992E13,0.06254578,1.4203491,10.207581
1.5611424885393E13,-0.05847168,1.4111786,10.110748
1.5611429920793E13,-0.09945679,1.4537964,9.931
1.5611434956194E13,-0.08882141,1.4663239,9.788055
1.5611439991594E13,-0.0864563,1.5064087,9.651382
1.5611445026994E13,-0.11192322,1.5553284,9.496796
1.5611450062395E13,-0.123794556,1.6645355,9.299286
1.5611455097795E13,-0.061447144,1.7265167,9.133438
1.5611460133195E13,-0.024642944,1.7995758,8.859543
1.5611465168596E13,-0.06715393,1.910675,8.717468
1.5611470203996E13,0.07600403,2.0740814,8.632858
1.5611475239397E13,0.12123108,2.1413116,8.640137
1.5611480274797E13,0.20524597,2.2205963,8.540298
1.5611485310197E13,0.27297974,2.240631,8.479416
1.5611490345598E13,0.29206848,2.2559204,8.469559
1.5611495380998E13,0.29689026,2.3385162,8.43898
1.5611500416399E13,0.30239868,2.3503113,8.347931
1.5611505451799E13,0.32258606,2.3547974,8.390579
1.5611510487199E13,0.38267517,2.4179077,8.375259
1.56115155226E13,0.4222107,2.436264,8.464432
1.5611520558E13,0.4657898,2.4684143,8.649979
1.5611525593401E13,0.46183777,2.4852753,8.804398
1.5611530628801E13,0.42980957,2.480774,8.929306
1.5611535664201E13,0.42341614,2.4775543,9.088791
1.5611540699602E13,0.36709595,2.4535522,9.268646
1.5611545735002E13,0.3745575,2.399887,9.345612
1.5611550770402E13,0.30993652,2.3600159,9.369049
1.5611555805803E13,0.27850342,2.331253,9.390839
1.5611560841203E13,0.20144653,2.2869873,9.456558
1.5611565876604E13,0.14738464,2.2612915,9.515839
1.5611570912004E13,0.124816895,2.2532806,9.650955
1.5611575947404E13,0.11074829,2.237564,9.680725
1.5611580982805E13,0.061904907,2.217804,9.716385
1.5611586018205E13,0.02003479,2.1781769,9.716431
1.5611591053606E13,0.002456665,2.1466675,9.750397
1.5611596089006E13,-0.008514404,2.1208801,9.780273
1.5611601124406E13,-0.0025482178,2.0813751,9.78447
1.5611606159807E13,0.023956299,2.079773,9.806152
1.5611611195207E13,0.06455994,2.1270294,9.850693
1.5611616230608E13,0.11210632,2.1571808,9.936066
1.5611621266008E13,0.14195251,2.191986,9.963181
1.5611626301408E13,0.14450073,2.2326508,9.959213
1.5611631336809E13,0.09991455,2.2213135,9.992233
1.5611636372209E13,0.07621765,2.2153625,9.975754
1.561164140761E13,0.036239624,2.1858978,9.96167
1.561164644301E13,-0.02067566,2.1045532,9.985519
1.561165147841E13,-0.059020996,2.063034,10.070175
1.5611656513811E13,-0.0770874,2.0664063,10.187134
1.5611661549211E13,-0.061782837,2.0870209,10.241043
1.5611666584611E13,-0.06436157,2.136673,10.245972
1.5611671620012E13,-0.078811646,2.193634,10.262314
1.5611676655412E13,-0.06614685,2.2251892,10.250824
1.5611681690813E13,-0.05769348,2.225937,10.161331
1.5611686726213E13,-0.05706787,2.19693,9.989075
1.5611691761613E13,-0.046081543,2.2014465,9.815872
1.5611696797014E13,-0.045425415,2.1889496,9.607025
1.5611701832414E13,-0.06036377,2.1744843,9.460037
1.5611706867815E13,-0.076919556,2.1986084,9.435135
1.5611711903215E13,-0.08691406,2.2332764,9.367981
1.5611716938615E13,-0.062164307,2.3203735,9.338959
1.5611721974016E13,-0.04598999,2.43898,9.3220825
1.5611727009416E13,-0.04762268,2.4973602,9.285095
1.5611732044817E13,-0.043426514,2.578186,9.272812
1.5611737080217E13,-0.022644043,2.5909882,9.310959
1.5611742115617E13,-0.0038757324,2.5690308,9.25502
1.5611747151018E13,-0.04083252,2.5415955,9.170471
1.5611752186418E13,-0.056106567,2.490387,9.129181
1.5611757221819E13,-0.088378906,2.4945374,9.15863
1.5611762257219E13,-0.16142273,2.5316162,9.255051
1.5611767292619E13,-0.29681396,2.5140076,9.44603
1.561177232802E13,-0.32867432,2.5197906,9.567703
1.561177736342E13,-0.23695374,2.5373535,9.63382
1.561178239882E13,-0.19702148,2.5145721,9.637436
1.5611787434221E13,-0.19154358,2.5035095,9.607864
1.5611792469621E13,-0.1747284,2.496292,9.63797
1.5611797505022E13,-0.16798401,2.4848785,9.520218
1.5611802540422E13,-0.15753174,2.5051117,9.426056
1.5611807575822E13,-0.12763977,2.5631561,9.401581
1.5611812611223E13,-0.06724548,2.6242218,9.391815
1.5611817646623E13,-0.069366455,2.700119,9.406738
1.5611822682024E13,-0.08769226,2.807663,9.46814
1.5611827717424E13,-0.0155181885,2.7730408,9.433075
1.5611832752824E13,0.0154418945,2.8190308,9.487808
1.5611837788225E13,-0.019561768,2.849823,9.396515
1.5611842823625E13,-0.09341431,2.790329,9.305222
1.5611847859026E13,-0.06323242,2.7620544,9.272568
1.5611852894426E13,-0.093688965,2.6427307,9.171143
1.5611857929826E13,-0.09674072,2.6401062,9.148422
1.5611862965227E13,-0.112457275,2.6804962,9.200043
1.5611868000627E13,-0.16426086,2.6925812,9.368393
1.5611873036027E13,-0.1541748,2.7740784,9.55809
1.5611878071428E13,-0.13871765,2.8099976,9.692123
1.5611883106828E13,-0.117111206,2.8917236,9.816055
1.5611888142229E13,-0.10964966,2.8654633,9.911224
1.5611893177629E13,-0.0695343,2.8556213,9.920486
1.5611898213029E13,-0.042678833,2.8350372,9.917313
1.561190324843E13,-0.059692383,2.8131256,9.834061
1.561190828383E13,-0.055496216,2.791153,9.760223
1.5611913319231E13,-0.11004639,2.8050842,9.616058
1.5611918354631E13,-0.16207886,2.7607422,9.545288
1.5611923390031E13,-0.15974426,2.7322845,9.463104
1.5611928425432E13,-0.20191956,2.7512054,9.4309845
1.5611933460832E13,-0.20587158,2.7704773,9.439865
1.5611938496233E13,-0.23814392,2.8414001,9.474945
1.5611943531633E13,-0.25616455,2.9266052,9.511124
1.5611948567033E13,-0.21025085,2.9836426,9.554672
1.5611953602434E13,-0.14169312,3.0570831,9.5298
1.5611958637834E13,-0.09613037,3.114273,9.529144
1.5611963673235E13,-0.11230469,3.120407,9.516083
1.5611968708635E13,-0.10096741,3.1124878,9.504944
1.5611973744035E13,-0.12181091,3.1049347,9.530609
1.5611978779436E13,-0.13356018,3.0993042,9.583618
1.5611983814836E13,-0.1395874,3.1006012,9.676651
1.5611988850236E13,-0.19999695,3.0834503,9.804855
1.5611993885637E13,-0.23036194,3.0569763,9.930664
1.5611998921037E13,-0.26690674,3.0464935,10.080765
1.5612003956438E13,-0.262146,3.059616,10.213058
1.5612008991838E13,-0.2602539,3.0623474,10.327469
1.5612014027238E13,-0.28507996,3.0441132,10.38324
1.5612019062639E13,-0.31282043,3.0367432,10.420944
1.5612024098039E13,-0.3269806,3.045807,10.373917
1.561202913344E13,-0.38423157,3.0402985,10.229034
1.561203416884E13,-0.43424988,3.005371,10.022461
1.561203920424E13,-0.49394226,2.940384,9.77713
1.5612044239641E13,-0.6014557,2.8952332,9.574097
1.5612049275041E13,-0.7004242,2.837387,9.399124
1.5612054310442E13,-0.74931335,2.7455902,9.233368
1.5612059345842E13,-0.7134857,2.666214,9.19072
1.5612064381242E13,-0.604599,2.6305847,9.312668
1.5612069416643E13,-0.467453,2.695053,9.584702
1.5612074452043E13,-0.31132507,2.7314606,9.976761
1.5612079487444E13,-0.2166748,2.7132874,10.43782
1.5612084522844E13,-0.20658875,2.7005768,10.9457855
1.5612089558244E13,-0.23710632,2.6287994,11.410629
1.5612094593645E13,-0.2961731,2.5522156,11.8081665
1.5612099629045E13,-0.38458252,2.4476166,12.129578
1.5612104664445E13,-0.51246643,2.2913666,12.346771
1.5612109699846E13,-0.6867218,2.0764923,12.5434265
1.5612114735246E13,-0.8478546,1.9516754,12.649673
1.5612119770647E13,-0.91918945,1.7842407,12.690979
1.5612124806047E13,-0.9177704,1.7077026,12.650192
1.5612129841447E13,-0.8914032,1.6636505,12.520767
1.5612134876848E13,-0.8916931,1.6468201,12.178711
1.5612139912248E13,-0.7940521,1.6759491,11.905045
1.5612144947649E13,-0.7129364,1.6627045,11.593155
1.5612149983049E13,-0.60691833,1.6953125,11.266098
1.5612155018449E13,-0.5257263,1.7638092,10.980743
1.561216005385E13,-0.43733215,1.8036804,10.7603
1.561216508925E13,-0.42861938,1.8684692,10.554535
1.5612170124651E13,-0.41137695,1.8271484,10.339676
1.5612175160051E13,-0.40792847,1.8195343,10.061752
1.5612180195451E13,-0.3848877,1.828476,9.850906
1.5612185230852E13,-0.44206238,1.7986298,9.706375
1.5612190266252E13,-0.502655,1.7453156,9.5277405
1.5612195301652E13,-0.5223236,1.7312622,9.430267
1.5612200337053E13,-0.56288147,1.7366638,9.218796
1.5612205372453E13,-0.5827637,1.6455994,9.166351
1.5612210407854E13,-0.6148834,1.6513062,9.05954
1.5612215443254E13,-0.5230255,1.7177582,9.042419
1.5612220478654E13,-0.5387268,1.7312317,8.984055
1.5612225514055E13,-0.5385437,1.800003,9.144394
1.5612230549455E13,-0.5541992,1.7673645,9.134476
1.5612235584856E13,-0.5010681,1.7042236,9.189301
1.5612240620256E13,-0.4873352,1.6499786,9.275543
1.5612245655656E13,-0.49775696,1.5714111,9.35199
1.5612250691057E13,-0.52534485,1.5673523,9.423599
1.5612255726457E13,-0.5343933,1.5517426,9.612854
1.5612260761858E13,-0.53726196,1.5621185,9.705826
1.5612265797258E13,-0.54737854,1.5278931,9.870636
1.5612270832658E13,-0.5550842,1.5079193,9.938126
1.5612275868059E13,-0.50177,1.4717712,10.013855
1.5612280903459E13,-0.52542114,1.4280396,9.925781
1.561228593886E13,-0.5130768,1.4142761,9.748688
1.561229097426E13,-0.5567169,1.3788452,9.471481
1.561229600966E13,-0.55192566,1.3742981,9.217316
1.5612301045061E13,-0.5158539,1.4363556,9.094467
1.5612306080461E13,-0.48825073,1.510437,9.011368
1.5612311115861E13,-0.49650574,1.5551147,8.902405
1.5612316151262E13,-0.46759033,1.6046753,8.781677
1.5612321186662E13,-0.4841919,1.6178741,8.6779175
1.5612326222063E13,-0.49588013,1.5830841,8.571075
1.5612331257463E13,-0.5390625,1.5475616,8.567871
1.5612336292863E13,-0.60639954,1.5237274,8.62619
1.5612341328264E13,-0.67996216,1.4759674,8.738403
1.5612346363664E13,-0.76556396,1.4462585,8.843079
1.5612351399065E13,-0.7823181,1.4217834,8.976395
1.5612356434465E13,-0.77204895,1.3925018,9.082962
1.5612361469865E13,-0.7575989,1.3804474,9.192032
1.5612366505266E13,-0.7461395,1.3827667,9.28006
1.5612371540666E13,-0.70069885,1.3756866,9.374817
1.5612376576067E13,-0.6329346,1.3772125,9.459717
1.5612381611467E13,-0.5667114,1.3803864,9.527893
1.5612386646867E13,-0.47428894,1.3956757,9.626724
1.5612391682268E13,-0.33572388,1.4550018,9.724594
1.5612396717668E13,-0.20159912,1.4951935,9.829483
1.5612401753069E13,-0.13182068,1.5074768,10.005051
1.5612406788469E13,-0.117889404,1.5431061,10.27861
1.5612411823869E13,-0.09750366,1.5567627,10.609756
1.561241685927E13,-0.101364136,1.553299,10.94574
1.561242189467E13,-0.091934204,1.5184021,11.204422
1.561242693007E13,-0.07312012,1.5036774,11.398453
1.5612431965471E13,-0.10218811,1.5271301,11.55191
1.5612437000871E13,-0.17436218,1.5009003,11.495834
1.5612442036272E13,-0.2349701,1.4803314,11.386871
1.5612447071672E13,-0.3066101,1.4806061,11.136063
1.5612452107072E13,-0.33966064,1.50383,10.794052
1.5612457142473E13,-0.34848022,1.5336304,10.497879
1.5612462177873E13,-0.30519104,1.5554199,10.188797
1.5612467213274E13,-0.25756836,1.6333008,9.812439
1.5612472248674E13,-0.2146759,1.7298279,9.546783
1.5612477284074E13,-0.16751099,1.8015289,9.391907
1.5612482319475E13,-0.12878418,1.8688507,9.267944
1.5612487354875E13,-0.070755005,1.9491272,9.168777
1.5612492390276E13,-0.03187561,1.9672852,9.069077
1.5612497425676E13,-0.020828247,2.013855,8.922379
1.5612502461076E13,-0.023956299,2.0174866,8.788773
1.5612507496477E13,-0.10447693,2.035797,8.627106
1.5612512531877E13,-0.17294312,2.0125427,8.477097
1.5612517567277E13,-0.24580383,2.009735,8.378128
1.5612522602678E13,-0.32792664,2.0381927,8.356216
1.5612527638078E13,-0.37898254,2.0878754,8.290451
1.5612532673479E13,-0.3383484,2.0610504,8.427856
1.5612537708879E13,-0.3594818,2.0827942,8.5634
1.5612542744279E13,-0.3531952,2.0951996,8.642273
1.561254777968E13,-0.3508606,2.0976257,8.828766
1.561255281508E13,-0.3095703,2.1459656,8.9609375
1.5612557850481E13,-0.25587463,2.1919556,9.019455
1.5612562885881E13,-0.19439697,2.2338867,9.16716
1.5612567921281E13,-0.2124939,2.2477417,9.332062
1.5612572956682E13,-0.21159363,2.331833,9.506271
1.5612577992082E13,-0.23146057,2.3792725,9.555649
1.5612583027483E13,-0.20680237,2.4576416,9.608994
1.5612588062883E13,-0.26419067,2.3839722,9.700287
1.5612593098283E13,-0.28608704,2.4557953,9.81427
1.5612598133684E13,-0.352005,2.3933563,9.836456
1.5612603169084E13,-0.37893677,2.357544,9.898483
1.5612608204485E13,-0.40797424,2.309616,9.908951
1.5612613239885E13,-0.4251709,2.3822937,9.856415
1.5612618275285E13,-0.4058838,2.4560242,9.800995
1.5612623310686E13,-0.3931427,2.5427246,9.620804
1.5612628346086E13,-0.3772583,2.605774,9.515381
1.5612633381486E13,-0.38258362,2.6254272,9.432724
1.5612638416887E13,-0.36595154,2.6590576,9.40686
1.5612643452287E13,-0.348114,2.693573,9.38974
1.5612648487688E13,-0.32369995,2.7445374,9.402695
1.5612653523088E13,-0.2848816,2.7519836,9.405685
1.5612658558488E13,-0.3115387,2.73497,9.435074
1.5612663593889E13,-0.36927795,2.7047272,9.46553
1.5612668629289E13,-0.46992493,2.667801,9.506714
1.561267366469E13,-0.58110046,2.6041565,9.501755
1.561267870009E13,-0.6144104,2.5766296,9.468796
1.561268373549E13,-0.6090088,2.5772705,9.39978
1.5612688770891E13,-0.6299591,2.578308,9.300629
1.5612693806291E13,-0.6384125,2.5860138,9.1957855
1.5612698841692E13,-0.6175995,2.6699524,9.090729
1.5612703877092E13,-0.5844879,2.784027,9.063232
1.5612708912492E13,-0.5093384,2.8817596,9.074951
1.5612713947893E13,-0.48913574,2.935257,9.169144
1.5612718983293E13,-0.4672699,2.933609,9.353134
1.5612724018694E13,-0.474411,2.8918457,9.487579
1.5612729054094E13,-0.5389862,2.828247,9.611679
1.5612734089494E13,-0.58018494,2.76799,9.689102
1.5612739124895E13,-0.6850586,2.653122,9.782806
1.5612744160295E13,-0.79107666,2.576004,9.909409
1.5612749195695E13,-0.78144836,2.607666,10.001221
1.5612754231096E13,-0.719574,2.6398468,10.072372
1.5612759266496E13,-0.6880951,2.6573486,10.1497345
1.5612764301897E13,-0.64756775,2.6943512,10.186142
1.5612769337297E13,-0.6676178,2.7253418,10.184662
1.5612774372697E13,-0.676651,2.7516937,10.1532135
1.5612779408098E13,-0.67352295,2.7869263,10.136154
1.5612784443498E13,-0.66345215,2.7540436,10.136154
1.5612789478899E13,-0.6805115,2.7230835,10.133026
1.5612794514299E13,-0.721756,2.6448822,10.066483
1.5612799549699E13,-0.75086975,2.5662231,9.964035
1.56128045851E13,-0.7854767,2.509552,9.850601
1.56128096205E13,-0.8311615,2.5182953,9.731216
1.5612814655901E13,-0.89527893,2.5078583,9.621918
1.5612819691301E13,-0.9208069,2.5359497,9.529495
1.5612824726701E13,-0.91448975,2.5607758,9.549377
1.5612829762102E13,-0.93333435,2.5567627,9.544922
1.5612834797502E13,-0.8746338,2.5955658,9.581802
1.5612839832902E13,-0.84036255,2.6304474,9.652176
1.5612844868303E13,-0.8027344,2.6115417,9.709564
1.5612849903703E13,-0.87405396,2.5927277,9.784454
1.5612854939104E13,-0.91352844,2.536621,9.716965
1.5612859974504E13,-0.9824066,2.5370636,9.5833435
1.5612865009904E13,-1.0017242,2.4931183,9.513626
1.5612870045305E13,-1.031189,2.4707794,9.520798
1.5612875080705E13,-0.9989319,2.4814606,9.509705
1.5612880116106E13,-0.9933777,2.4610443,9.601715
1.5612885151506E13,-0.9773407,2.5490112,9.610016
1.5612890186906E13,-0.97439575,2.5710297,9.723877
1.5612895222307E13,-0.83091736,2.604416,9.900726
1.5612900257707E13,-0.80532837,2.6595764,10.055222
1.5612905293108E13,-0.74024963,2.6752777,10.136032
1.5612910328508E13,-0.7029114,2.6219177,10.218521
1.5612915363908E13,-0.701416,2.6349487,10.1887665
1.5612920399309E13,-0.72062683,2.6180878,10.18074
1.5612925434709E13,-0.7739563,2.6036682,9.983459
1.561293047011E13,-0.7971802,2.6154327,9.915665
1.561293550551E13,-0.7859802,2.576416,9.874481
1.561294054091E13,-0.7684021,2.5810242,9.8810425
1.5612945576311E13,-0.701828,2.5774841,9.895416
1.5612950611711E13,-0.6819763,2.5541382,9.859024
1.5612955647111E13,-0.68637085,2.5454865,9.627609
1.5612960682512E13,-0.6248169,2.5088806,9.422256
1.5612965717912E13,-0.6148224,2.4426422,9.238434
1.5612970753313E13,-0.5102539,2.420517,9.20694
1.5612975788713E13,-0.38742065,2.3993683,9.24733
1.5612980824113E13,-0.19949341,2.3704376,9.3901825
1.5612985859514E13,0.010513306,2.3720703,9.689499
1.5612990894914E13,0.18273926,2.381195,10.215027
1.5612995930315E13,0.2658081,2.3528748,10.84491
1.5613000965715E13,0.30393982,2.3079834,11.639099
1.5613006001115E13,0.23840332,2.2236938,12.300613
1.5613011036516E13,0.15368652,2.0897217,12.717239
1.5613016071916E13,0.00920105,1.9170837,13.020065
1.5613021107317E13,-0.1010437,1.796814,13.077957
1.5613026142717E13,-0.24110413,1.7256622,12.993835
1.5613031178117E13,-0.36271667,1.6708221,12.813324
1.5613036213518E13,-0.46420288,1.6564941,12.519638
1.5613041248918E13,-0.42729187,1.6466827,12.1263275
1.5613046284319E13,-0.30880737,1.7206421,11.700317
1.5613051319719E13,-0.15675354,1.8108826,11.258499
1.5613056355119E13,-0.053024292,1.8709717,10.961929
1.561306139052E13,0.0058898926,1.9381561,10.821899
1.561306642592E13,0.030593872,1.9315796,10.760742
1.561307146132E13,0.03981018,1.8899231,10.80069
1.5613076496721E13,0.048355103,1.8646545,10.979706
1.5613081532121E13,0.063568115,1.8832245,11.194748
1.5613086567522E13,0.025421143,1.8300171,11.277542
1.5613091602922E13,-0.070755005,1.7224884,11.183151
1.5613096638322E13,-0.23399353,1.6198578,10.913818
1.5613101673723E13,-0.40361023,1.518631,10.622223
1.5613106709123E13,-0.5418854,1.4071808,10.274918
1.5613111744524E13,-0.65242004,1.3322296,10.008896
1.5613116779924E13,-0.7127838,1.2948914,9.78183
1.5613121815324E13,-0.7517395,1.2995605,9.555908
1.5613126850725E13,-0.72520447,1.3379364,9.480911
1.5613131886125E13,-0.6806946,1.3893585,9.401993
1.5613136921526E13,-0.6421051,1.4269409,9.24173
1.5613141956926E13,-0.5277405,1.4775543,9.1302185
1.5613146992326E13,-0.39363098,1.4905243,9.090897
1.5613152027727E13,-0.2364502,1.5935516,9.041336
1.5613157063127E13,-0.0887146,1.6672058,8.897308
1.5613162098527E13,0.006134033,1.7399292,8.768723
1.5613167133928E13,0.10572815,1.8291473,8.628082
1.5613172169328E13,0.1698761,1.8623352,8.559128
1.5613177204729E13,0.24987793,1.9263153,8.356689
1.5613182240129E13,0.31669617,1.9159241,8.268372
1.5613187275529E13,0.3986969,1.9156647,8.305771
1.561319231093E13,0.46342468,1.9108887,8.343185
1.561319734633E13,0.4729309,1.8752441,8.441879
1.5613202381731E13,0.520874,1.8481903,8.540466
1.5613207417131E13,0.5324402,1.7765808,8.668457
1.5613212452531E13,0.5367279,1.7175903,8.729187
1.5613217487932E13,0.576355,1.7100067,8.8320465
1.5613222523332E13,0.6197357,1.6612854,8.850067
1.5613227558733E13,0.6117096,1.6060486,8.895447
1.5613232594133E13,0.5540619,1.5267792,8.906799
1.5613237629533E13,0.5858307,1.4755707,8.983826
1.5613242664934E13,0.65301514,1.4859009,9.014648
1.5613247700334E13,0.66812134,1.5146179,9.076889
1.5613252735735E13,0.59664917,1.4026794,9.082855
1.5613257771135E13,0.5904541,1.396286,9.183044
1.5613262806535E13,0.5413666,1.3404999,9.308014
1.5613267841936E13,0.46472168,1.2519836,9.597137
1.5613272877336E13,0.47827148,1.1535187,9.881348
1.5613277912736E13,0.3508911,1.0983124,10.141785
1.5613282948137E13,0.18405151,1.0375061,10.412338
1.5613287983537E13,0.09663391,0.91719055,10.7417755
1.5613293018938E13,-0.030273438,0.89653015,10.959961
1.5613298054338E13,-0.16531372,0.8749542,11.199432
1.5613303089738E13,-0.23074341,0.8899231,11.273285
1.5613308125139E13,-0.3510437,0.88253784,11.29953
1.5613313160539E13,-0.4137268,0.95010376,11.2691345
1.561331819594E13,-0.42474365,1.0434113,11.279968
1.561332323134E13,-0.40325928,1.1397552,11.162231
1.561332826674E13,-0.38354492,1.1838531,10.958099
1.5613333302141E13,-0.3549347,1.2629395,10.805771
1.5613338337541E13,-0.3618927,1.2746735,10.594284
1.5613343372942E13,-0.41407776,1.3414307,10.293945
1.5613348408342E13,-0.40657043,1.4094391,10.086929
1.5613353443742E13,-0.37065125,1.5076294,9.896301
1.5613358479143E13,-0.41018677,1.6063385,9.657532
1.5613363514543E13,-0.4141388,1.7166901,9.443924
1.5613368549944E13,-0.41636658,1.8158722,9.216568
1.5613373585344E13,-0.37986755,1.8596191,8.973801
1.5613378620744E13,-0.34397888,1.8855591,8.776276
1.5613383656145E13,-0.35534668,1.9203033,8.662048
1.5613388691545E13,-0.2943573,1.9731293,8.538864
1.5613393726945E13,-0.23048401,2.0429077,8.515137
1.5613398762346E13,-0.21325684,2.1056213,8.585968
1.5613403797746E13,-0.16343689,2.1319122,8.715073
1.5613408833147E13,-0.12931824,2.1862183,8.836472
1.5613413868547E13,-0.09591675,2.2400208,8.970749
1.5613418903947E13,-0.04676819,2.2470093,9.1310425
1.5613423939348E13,-0.017440796,2.2311096,9.247345
1.5613428974748E13,-0.032073975,2.2064972,9.328003
1.5613434010149E13,-0.09794617,2.164688,9.4319
1.5613439045549E13,-0.16291809,2.141693,9.504395
1.5613444080949E13,-0.15046692,2.1598358,9.526047
1.561344911635E13,-0.1465149,2.168396,9.544907
1.561345415175E13,-0.14440918,2.1979675,9.545959
1.5613459187151E13,-0.095687866,2.2191467,9.562668
1.5613464222551E13,-0.06037903,2.2586823,9.609222
1.5613469257951E13,0.0043029785,2.2830505,9.535278
1.5613474293352E13,0.07839966,2.2943726,9.426865
1.5613479328752E13,0.124435425,2.362442,9.33754
1.5613484364152E13,0.16459656,2.4186707,9.258835
1.5613489399553E13,0.15142822,2.4738464,9.18866
1.5613494434953E13,0.11784363,2.5046997,9.1371155
1.5613499470354E13,0.105545044,2.515976,9.087906
1.5613504505754E13,0.112457275,2.4749756,9.0816345
1.5613509541154E13,0.053512573,2.425171,9.179062
1.5613514576555E13,-0.0054779053,2.3727417,9.221069
1.5613519611955E13,-0.07296753,2.3318787,9.241135
1.5613524647356E13,-0.1867981,2.3314667,9.345749
1.5613529682756E13,-0.23222351,2.2960358,9.414825
1.5613534718156E13,-0.3136902,2.2604218,9.465668
1.5613539753557E13,-0.36961365,2.2808838,9.408478
1.5613544788957E13,-0.36671448,2.2980347,9.426315
1.5613549824358E13,-0.38967896,2.3166046,9.394516
1.5613554859758E13,-0.3434143,2.3463287,9.363663
1.5613559895158E13,-0.28315735,2.3796997,9.208298
1.5613564930559E13,-0.20358276,2.5272217,9.091187
1.5613569965959E13,-0.116622925,2.5737915,9.037582
1.561357500136E13,-0.072280884,2.5740204,8.996063
1.561358003676E13,-0.092437744,2.6123505,8.936996
1.561358507216E13,-0.091293335,2.5935822,8.964066
1.5613590107561E13,-0.038986206,2.6560364,9.036835
1.5613595142961E13,-0.06956482,2.647766,9.201996
1.5613600178361E13,-0.03439331,2.6528015,9.332611
1.5613605213762E13,-0.058013916,2.6840668,9.418472
1.5613610249162E13,-0.064331055,2.7119446,9.559677
1.5613615284563E13,-0.11180115,2.7118073,9.546982
1.5613620319963E13,-0.18362427,2.7095642,9.524536
1.5613625355363E13,-0.24424744,2.6839294,9.381363
1.5613630390764E13,-0.2766571,2.7377014,9.306076
1.5613635426164E13,-0.27711487,2.709076,9.337875
1.5613640461565E13,-0.30099487,2.6887054,9.374237
1.5613645496965E13,-0.3133545,2.7116241,9.410461
1.5613650532365E13,-0.25997925,2.7091522,9.415604
1.5613655567766E13,-0.30506897,2.7154999,9.4561615
1.5613660603166E13,-0.30081177,2.7835236,9.486649
1.5613665638567E13,-0.33366394,2.8509064,9.436447
1.5613670673967E13,-0.2843628,2.8821716,9.385468
1.5613675709367E13,-0.25372314,2.938034,9.334213
1.5613680744768E13,-0.25941467,2.914795,9.30661
1.5613685780168E13,-0.23834229,2.9787598,9.245544
1.5613690815569E13,-0.24043274,3.0057373,9.195419
1.5613695850969E13,-0.22073364,3.008545,9.164917
1.5613700886369E13,-0.26408386,2.973297,9.190201
1.561370592177E13,-0.32914734,2.9631653,9.20047
1.561371095717E13,-0.36628723,2.9657898,9.217987
1.561371599257E13,-0.38549805,2.9943848,9.226257
1.5613721027971E13,-0.39117432,2.996231,9.255814
1.5613726063371E13,-0.40812683,3.029953,9.303299
1.5613731098772E13,-0.3841095,3.0926971,9.338043
1.5613736134172E13,-0.34898376,3.111908,9.354446
1.5613741169572E13,-0.34449768,3.1173859,9.399826
1.5613746204973E13,-0.34317017,3.1424408,9.547028
1.5613751240373E13,-0.30474854,3.1293335,9.650909
1.5613756275774E13,-0.2833557,3.1289673,9.600403
1.5613761311174E13,-0.2937622,3.122284,9.512756
1.5613766346574E13,-0.323349,3.1132965,9.495834
1.5613771381975E13,-0.34187317,3.1084137,9.551636
1.5613776417375E13,-0.37039185,3.0953217,9.603973
1.5613781452776E13,-0.42526245,3.0961456,9.695679
1.5613786488176E13,-0.4424286,3.0811005,9.766357
1.5613791523576E13,-0.41700745,3.0740356,9.842621
1.5613796558977E13,-0.42567444,3.0685425,9.884659
1.5613801594377E13,-0.43167114,3.0394592,9.867233
1.5613806629777E13,-0.3963318,3.060028,9.940659
1.5613811665178E13,-0.36463928,3.0549927,10.016159
1.5613816700578E13,-0.36593628,3.0101929,9.972092
1.5613821735979E13,-0.38591003,2.9584045,9.924789
1.5613826771379E13,-0.4473877,2.900238,9.885147
1.5613831806779E13,-0.5978241,2.8807678,9.878555
1.561383684218E13,-0.8141937,2.836029,9.95961
1.561384187758E13,-0.9221802,2.8059692,9.986679
1.5613846912981E13,-0.9539795,2.7512512,9.890076
1.5613851948381E13,-0.98439026,2.663208,9.726044
1.5613856983781E13,-1.006546,2.5393982,9.593552
1.5613862019182E13,-1.0106659,2.3966827,9.61348
1.5613867054582E13,-1.0726013,2.2240143,9.643097
1.5613872089983E13,-0.990036,2.1517181,9.849548
1.5613877125383E13,-0.7687988,2.0917664,10.081818
1.5613882160783E13,-0.70606995,2.25914,10.4796295
1.5613887196184E13,-0.7140045,2.2468872,10.651688
1.5613892231584E13,-0.70347595,2.2862701,10.718292
1.5613897266985E13,-0.74757385,2.320221,10.797974
1.5613902302385E13,-0.9055786,2.3093262,10.855713
1.5613907337785E13,-1.03685,2.1992798,11.088745
1.5613912373186E13,-1.1986389,2.0763855,11.194153
1.5613917408586E13,-1.245163,1.9408417,11.46199
1.5613922443986E13,-1.2526703,1.8111877,11.778564
1.5613927479387E13,-1.2371063,1.6924438,12.0811615
1.5613932514787E13,-1.2384644,1.6472626,12.277557
1.5613937550188E13,-1.2131805,1.6455383,12.313324
1.5613942585588E13,-1.1085052,1.6847687,12.263428
1.5613947620988E13,-1.083252,1.7234192,12.206802
1.5613952656389E13,-1.0195923,1.7630157,12.157013
1.5613957691789E13,-0.8283081,1.8303223,12.153458
1.561396272719E13,-0.7204437,1.8026428,12.27536
1.561396776259E13,-0.5734253,1.7976379,12.528793
1.561397279799E13,-0.47476196,1.7076874,12.62175
1.5613977833391E13,-0.47950745,1.6404114,12.700806
1.5613982868791E13,-0.52700806,1.5700378,12.84787
1.5613987904192E13,-0.5884247,1.4186096,12.863541
1.5613992939592E13,-0.72906494,1.362442,12.928604
1.5613997974992E13,-0.8595123,1.2563019,12.755966
1.5614003010393E13,-0.98080444,1.1908875,12.533539
1.5614008045793E13,-1.0414734,1.1885071,12.248749
1.5614013081194E13,-1.1056213,1.1573792,11.921005
1.5614018116594E13,-1.0876617,1.1200104,11.567108
1.5614023151994E13,-1.0790558,1.1368103,11.113449
1.5614028187395E13,-1.0110474,1.1358948,10.659744
1.5614033222795E13,-0.9460144,1.1741943,10.252548
1.5614038258195E13,-0.8809204,1.1556244,9.892029
1.5614043293596E13,-0.77075195,1.2358093,9.635284
1.5614048328996E13,-0.75987244,1.2950134,9.37384
1.5614053364397E13,-0.77793884,1.3199005,9.177048
1.5614058399797E13,-0.7127533,1.3749695,8.997467
1.5614063435197E13,-0.6374054,1.5079651,8.699753
1.5614068470598E13,-0.6768341,1.5679932,8.5030365
1.5614073505998E13,-0.683548,1.5688629,8.265808
1.5614078541399E13,-0.6708069,1.5640259,8.00087
1.5614083576799E13,-0.7015228,1.5542145,7.8019257
1.5614088612199E13,-0.7172241,1.555603,7.6593933
1.56140936476E13,-0.7450714,1.5294495,7.501816
1.5614098683E13,-0.7752533,1.5165558,7.475052
1.5614103718401E13,-0.82569885,1.5045624,7.561386
1.5614108753801E13,-0.8766632,1.4989014,7.6328278
1.5614113789201E13,-0.9707947,1.4433136,7.721817
1.5614118824602E13,-1.0618286,1.3805084,7.7737885
1.5614123860002E13,-1.1174469,1.3278351,7.7877655
1.5614128895402E13,-1.1653595,1.3042603,7.7901154
1.5614133930803E13,-1.1588287,1.3001709,7.7487335
1.5614138966203E13,-1.1266785,1.3166504,7.711197
1.5614144001604E13,-1.0430298,1.3984833,7.664673
1.5614149037004E13,-0.96847534,1.493103,7.6716003
1.5614154072404E13,-0.88648987,1.5713043,7.726364
1.5614159107805E13,-0.8035126,1.6013336,7.807358
1.5614164143205E13,-0.7559967,1.5870819,8.020538
1.5614169178606E13,-0.6604767,1.5623322,8.244446
1.5614174214006E13,-0.54130554,1.5527039,8.538193
1.5614179249406E13,-0.3937378,1.5432587,8.867096
1.5614184284807E13,-0.28042603,1.5653534,9.171158
1.5614189320207E13,-0.15766907,1.5954437,9.476334
1.5614194355608E13,-0.04397583,1.6077118,9.8802185
1.5614199391008E13,-0.015045166,1.6098328,10.327805
1.5614204426408E13,-0.04286194,1.5368347,10.887207
1.5614209461809E13,-0.049575806,1.474289,11.49765
1.5614214497209E13,-0.14282227,1.3897095,12.034622
1.561421953261E13,-0.3398285,1.2502594,12.579178
1.561422456801E13,-0.5529022,1.1356964,12.960373
1.561422960341E13,-0.7929077,1.005661,13.315277
1.5614234638811E13,-1.0274963,0.94018555,13.367889
1.5614239674211E13,-1.256012,0.82629395,13.19931
1.5614244709611E13,-1.3656921,0.76257324,12.802628
1.5614249745012E13,-1.4203644,0.7666168,12.073807
1.5614254780412E13,-1.4307861,0.83631897,11.331497
1.5614259815813E13,-1.289505,0.94947815,10.5273285
1.5614264851213E13,-1.0829773,1.1383972,9.813782
1.5614269886613E13,-0.9638977,1.3458405,9.207214
1.5614274922014E13,-0.8870697,1.4594421,8.825272
1.5614279957414E13,-0.7290039,1.6106873,8.456726
1.5614284992815E13,-0.6577606,1.6949921,8.177567
1.5614290028215E13,-0.53230286,1.8139954,7.944687
1.5614295063615E13,-0.4962921,1.8521881,7.9437866
1.5614300099016E13,-0.48440552,1.9549408,8.016113
1.5614305134416E13,-0.5539856,1.9482117,8.1597595
1.5614310169817E13,-0.60061646,1.9799194,8.332657
1.5614315205217E13,-0.6060028,1.9376526,8.522003
1.5614320240617E13,-0.7173157,1.8724823,8.796722
1.5614325276018E13,-0.8284607,1.7694244,8.8563385
1.5614330311418E13,-0.85328674,1.6789856,9.013718
1.5614335346819E13,-0.90927124,1.5771332,9.131088
1.5614340382219E13,-0.95295715,1.5291443,9.267944
1.5614345417619E13,-0.9352875,1.5489044,9.397888
1.561435045302E13,-0.9111328,1.55896,9.57431
1.561435548842E13,-0.80259705,1.5938721,9.741318
1.561436052382E13,-0.7558594,1.6747894,9.824738
1.5614365559221E13,-0.6340332,1.7802582,9.81572
1.5614370594621E13,-0.5127411,1.9213715,9.792664
1.5614375630022E13,-0.4711151,1.9903717,9.672577
1.5614380665422E13,-0.4072876,2.038498,9.631546
1.5614385700822E13,-0.35713196,2.1222382,9.584412
1.5614390736223E13,-0.2966919,2.1558075,9.512909
1.5614395771623E13,-0.26765442,2.219101,9.475128
1.5614400807024E13,-0.29878235,2.226593,9.625259
1.5614405842424E13,-0.4050293,2.154953,9.690689
1.5614410877824E13,-0.46923828,2.118225,9.705109
1.5614415913225E13,-0.572464,2.0778656,9.790588
1.5614420948625E13,-0.6549988,2.046585,9.824158
1.5614425984026E13,-0.70436096,2.0189667,9.750946
1.5614431019426E13,-0.73506165,2.0314941,9.663895
1.5614436054826E13,-0.74598694,2.048996,9.536346
1.5614441090227E13,-0.7545624,2.0993042,9.394287
1.5614446125627E13,-0.6959076,2.1752777,9.308441
1.5614451161027E13,-0.63998413,2.2346497,9.318344
1.5614456196428E13,-0.5982971,2.2892303,9.314255
1.5614461231828E13,-0.58457947,2.3314056,9.321411
1.5614466267229E13,-0.5931549,2.350235,9.330139
1.5614471302629E13,-0.58499146,2.3833618,9.360687
1.5614476338029E13,-0.59217834,2.372406,9.436722
1.561448137343E13,-0.6233368,2.3537292,9.469315
1.561448640883E13,-0.6625061,2.340683,9.493378
1.5614491444231E13,-0.68344116,2.352234,9.517136
1.5614496479631E13,-0.669693,2.391693,9.56575
1.5614501515031E13,-0.6182251,2.4086304,9.615158
1.5614506550432E13,-0.5840759,2.450714,9.605057
1.5614511585832E13,-0.55963135,2.5217438,9.603485
1.5614516621233E13,-0.5270691,2.5618896,9.5724945
1.5614521656633E13,-0.49128723,2.591034,9.548004
1.5614526692033E13,-0.5163727,2.587799,9.592392
1.5614531727434E13,-0.46853638,2.5928345,9.695297
1.5614536762834E13,-0.41297913,2.658249,9.744339
1.5614541798235E13,-0.40151978,2.6857605,9.772751
1.5614546833635E13,-0.4022827,2.7033844,9.787857
1.5614551869035E13,-0.43041992,2.6965332,9.845093
1.5614556904436E13,-0.48320007,2.6642303,9.81636
1.5614561939836E13,-0.5748749,2.6013641,9.799927
1.5614566975236E13,-0.6552887,2.515976,9.795059
1.5614572010637E13,-0.7186737,2.4417725,9.788208
1.5614577046037E13,-0.725235,2.432602,9.773331
1.5614582081438E13,-0.72587585,2.4338837,9.763809
1.5614587116838E13,-0.7150421,2.4627838,9.893555
1.5614592152238E13,-0.7363281,2.4592133,9.953705
1.5614597187639E13,-0.75120544,2.4775085,9.901215
1.5614602223039E13,-0.71076965,2.4752808,9.998383
1.561460725844E13,-0.7253876,2.519333,10.036682
1.561461229384E13,-0.7398224,2.5560913,10.07692
1.561461732924E13,-0.72810364,2.550949,10.027374
1.5614622364641E13,-0.7158356,2.5719757,9.936478
1.5614627400041E13,-0.73721313,2.515808,9.904495
1.5614632435442E13,-0.77030945,2.5183105,9.826981
1.5614637470842E13,-0.88253784,2.5145264,9.709045
1.5614642506242E13,-0.93533325,2.448944,9.651581
1.5614647541643E13,-0.9504547,2.5234222,9.641098
1.5614652577043E13,-0.96739197,2.5190277,9.491119
1.5614657612444E13,-0.9984741,2.5034943,9.496216
1.5614662647844E13,-1.0119324,2.5461426,9.413162
1.5614667683244E13,-0.9937744,2.5608826,9.424484
1.5614672718645E13,-0.95610046,2.589157,9.3367
1.5614677754045E13,-0.96051025,2.6359558,9.374832
1.5614682789445E13,-0.88179016,2.6486511,9.384811
1.5614687824846E13,-0.8634491,2.742569,9.43045
1.5614692860246E13,-0.87135315,2.7237701,9.381363
1.5614697895647E13,-0.86680603,2.808838,9.413284
1.5614702931047E13,-0.9149933,2.8059082,9.3759
1.5614707966447E13,-0.9632263,2.7238464,9.397446
1.5614713001848E13,-1.0028992,2.675354,9.470154
1.5614718037248E13,-1.0033417,2.6732178,9.491287
1.5614723072649E13,-1.0018005,2.6841278,9.480515
1.5614728108049E13,-0.97932434,2.699707,9.497116
1.5614733143449E13,-0.96684265,2.6819763,9.599457
1.561473817885E13,-0.95173645,2.6740875,9.696594
1.561474321425E13,-0.94244385,2.7309875,9.762299
1.5614748249651E13,-0.8826599,2.7284698,9.818054
1.5614753285051E13,-0.82048035,2.732315,9.872314
1.5614758320451E13,-0.84654236,2.7711487,9.90126
1.5614763355852E13,-0.87991333,2.798767,9.936813
1.5614768391252E13,-0.9756775,2.832489,9.922165
1.5614773426652E13,-1.0406342,2.8338165,9.7845
1.5614778462053E13,-1.0667725,2.8500671,9.573242
1.5614783497453E13,-1.1179504,2.8523865,9.382385
1.5614788532854E13,-1.14328,2.8332977,9.227676
1.5614793568254E13,-1.0877838,2.8029785,9.19873
1.5614798603654E13,-1.00177,2.7751617,9.293945
1.5614803639055E13,-0.81921387,2.7348022,9.480804
1.5614808674455E13,-0.62290955,2.694458,9.818466
1.5614813709856E13,-0.4683075,2.6738586,10.223541
1.5614818745256E13,-0.33624268,2.664566,10.6345215
1.5614823780656E13,-0.24565125,2.633255,11.028732
1.5614828816057E13,-0.2106018,2.5800629,11.28331
1.5614833851457E13,-0.21582031,2.4628754,11.396759
1.5614838886858E13,-0.28848267,2.3412933,11.504456
1.5614843922258E13,-0.46769714,2.2036896,11.603714
1.5614848957658E13,-0.6651306,1.9913177,11.687408
1.5614853993059E13,-0.8240509,1.87323,11.689713
1.5614859028459E13,-0.8714905,1.8430786,11.500259
1.561486406386E13,-0.8295746,1.8438721,11.31366
1.561486909926E13,-0.813324,1.8936768,11.204208
1.561487413466E13,-0.76153564,1.9680176,11.104919
1.5614879170061E13,-0.66075134,2.069336,11.067688
1.5614884205461E13,-0.55773926,2.1571198,11.020309
1.5614889240861E13,-0.46557617,2.1811218,11.043655
1.5614894276262E13,-0.355011,2.1894836,11.092987
1.5614899311662E13,-0.2831421,2.2375793,11.103378
1.5614904347063E13,-0.27174377,2.2832794,11.126205
1.5614909382463E13,-0.27095032,2.280548,11.159027
1.5614914417863E13,-0.3946991,2.2220001,11.219376
1.5614919453264E13,-0.46362305,2.1067963,11.19516
1.5614924488664E13,-0.5361328,1.9525452,11.181641
1.5614929524065E13,-0.64746094,1.8390961,11.1757965
1.5614934559465E13,-0.7655792,1.6374207,10.974304
1.5614939594865E13,-0.8498535,1.4426117,10.829132
1.5614944630266E13,-0.8785858,1.3981476,10.654633
1.5614949665666E13,-0.89990234,1.3935547,10.452744
1.5614954701067E13,-0.86120605,1.4975433,10.248917
1.5614959736467E13,-0.79615784,1.5201263,10.074341
1.5614964771867E13,-0.7179413,1.547287,9.745392
1.5614969807268E13,-0.6072235,1.5984802,9.486771
1.5614974842668E13,-0.5249939,1.7092285,9.294144
1.5614979878069E13,-0.40202332,1.7938843,9.215988
1.5614984913469E13,-0.29962158,1.8345642,9.1323395
1.5614989948869E13,-0.14021301,1.8294678,9.133591
1.561499498427E13,-0.044158936,1.8548279,9.041809
1.561500001967E13,0.08509827,1.9481201,9.096283
1.561500505507E13,0.11340332,1.9938965,9.152176
1.5615010090471E13,0.1103363,2.0382996,9.231247
1.5615015125871E13,0.16033936,2.0366669,9.22287
1.5615020161272E13,0.1446228,2.0029907,9.287964
1.5615025196672E13,0.14202881,1.9499512,9.301224
1.5615030232072E13,0.1972351,1.8568573,9.308228
1.5615035267473E13,0.20306396,1.7717133,9.309555
1.5615040302873E13,0.2225647,1.6825867,9.293045
1.5615045338274E13,0.281662,1.6220093,9.358673
1.5615050373674E13,0.35694885,1.6131592,9.367584
1.5615055409074E13,0.34947205,1.6737366,9.384842
1.5615060444475E13,0.40298462,1.6513062,9.316467
1.5615065479875E13,0.3680725,1.6642456,9.292633
1.5615070515276E13,0.3859558,1.6638184,9.208298
1.5615075550676E13,0.4088745,1.7015381,9.205795
1.5615080586076E13,0.36758423,1.6573944,9.19455
1.5615085621477E13,0.32044983,1.5305328,9.227493
1.5615090656877E13,0.21989441,1.4323578,9.257965
1.5615095692277E13,0.09378052,1.3457336,9.35051
1.5615100727678E13,-0.013290405,1.2866364,9.5017395
1.5615105763078E13,-0.13644409,1.2364502,9.552963
1.5615110798479E13,-0.22721863,1.1929474,9.5950165
1.5615115833879E13,-0.3659973,1.1391449,9.625336
1.5615120869279E13,-0.43789673,1.0965118,9.681366
1.561512590468E13,-0.5164795,1.1026459,9.742111
1.561513094008E13,-0.5391998,1.1647034,9.770798
1.5615135975481E13,-0.50268555,1.2038727,9.809418
1.5615141010881E13,-0.45552063,1.2975159,9.820145
1.5615146046281E13,-0.457901,1.3966217,9.873154
1.5615151081682E13,-0.51368713,1.4806519,9.969711
1.5615156117082E13,-0.5773163,1.5367584,10.069977
1.5615161152483E13,-0.6221924,1.589508,10.199722
1.5615166187883E13,-0.6609955,1.5897217,10.312653
1.5615171223283E13,-0.69841003,1.5819244,10.342392
1.5615176258684E13,-0.73695374,1.5789948,10.318985
1.5615181294084E13,-0.7536926,1.5585175,10.263992
1.5615186329485E13,-0.7689514,1.568161,10.155563
1.5615191364885E13,-0.77015686,1.6021576,10.018204
1.5615196400285E13,-0.75408936,1.6479187,9.852493
1.5615201435686E13,-0.68885803,1.7241821,9.650391
1.5615206471086E13,-0.58392334,1.8112335,9.410919
1.5615211506486E13,-0.52223206,1.9403839,9.236954
1.5615216541887E13,-0.46853638,2.038559,9.089386
1.5615221577287E13,-0.42471313,2.0984192,8.992096
1.5615226612688E13,-0.42121887,2.1552734,8.91304
1.5615231648088E13,-0.38420105,2.1833038,8.857803
1.5615236683488E13,-0.41207886,2.1761475,8.918076
1.5615241718889E13,-0.35057068,2.1567383,8.940842
1.5615246754289E13,-0.23318481,2.178894,8.823242
1.561525178969E13,-0.21968079,2.1871948,8.702866
1.561525682509E13,-0.18936157,2.254425,8.568527
1.561526186049E13,-0.1773529,2.3690796,8.547638
1.5615266895891E13,-0.16654968,2.3727722,8.568909
1.5615271931291E13,-0.12184143,2.3718262,8.627899
1.5615276966692E13,-0.09510803,2.3625488,8.673996
1.5615282002092E13,-0.09700012,2.3153076,8.760788
1.5615287037492E13,-0.08560181,2.264801,8.819443
1.5615292072893E13,-0.09147644,2.2114716,8.814133
1.5615297108293E13,-0.14227295,2.2207794,8.816376
1.5615302143694E13,-0.11161804,2.2651367,8.77832
1.5615307179094E13,-0.128479,2.3007965,8.78891
1.5615312214494E13,-0.20625305,2.336853,8.799774
1.5615317249895E13,-0.21499634,2.360611,8.850815
1.5615322285295E13,-0.23022461,2.3383179,8.8233185
1.5615327320695E13,-0.24282837,2.295639,8.848846
1.5615332356096E13,-0.32958984,2.2839355,8.8598175
1.5615337391496E13,-0.36383057,2.2834778,8.848816
1.5615342426897E13,-0.4093628,2.2601013,8.99791
1.5615347462297E13,-0.4300232,2.2023773,9.124115
1.5615352497697E13,-0.4386139,2.2978973,9.182205
1.5615357533098E13,-0.4141388,2.3215027,9.276169
1.5615362568498E13,-0.38391113,2.3201447,9.34288
1.5615367603899E13,-0.44410706,2.3468933,9.330475
1.5615372639299E13,-0.45617676,2.3713684,9.400482
1.5615377674699E13,-0.46754456,2.2975922,9.3984375
1.56153827101E13,-0.5026245,2.2768097,9.4327545
1.56153877455E13,-0.5196991,2.3067322,9.497391
1.5615392780901E13,-0.50123596,2.3215637,9.556381
1.5615397816301E13,-0.51252747,2.3247833,9.626495
1.5615402851701E13,-0.5625305,2.351822,9.704636
1.5615407887102E13,-0.596344,2.3963013,9.745773
1.5615412922502E13,-0.6382141,2.4507751,9.893555
1.5615417957902E13,-0.6041565,2.4615784,9.903
1.5615422993303E13,-0.57107544,2.4595337,9.988892
1.5615428028703E13,-0.61146545,2.492157,10.005508
1.5615433064104E13,-0.62049866,2.4688416,9.9605255
1.5615438099504E13,-0.6612396,2.429947,9.970871
1.5615443134904E13,-0.63700867,2.4434357,10.118988
1.5615448170305E13,-0.6017761,2.4536438,10.218002
1.5615453205705E13,-0.5592041,2.5095673,10.176712
1.5615458241106E13,-0.52064514,2.5529327,10.133545
1.5615463276506E13,-0.5144348,2.6035614,10.003082
1.5615468311906E13,-0.5118561,2.7278442,9.949982
1.5615473347307E13,-0.5120239,2.8075104,9.793076
1.5615478382707E13,-0.47860718,2.869522,9.687317
1.5615483418108E13,-0.42678833,2.9207153,9.603317
1.5615488453508E13,-0.39624023,2.949417,9.537277
1.5615493488908E13,-0.40219116,2.947647,9.451279
1.5615498524309E13,-0.38702393,2.9456177,9.412842
1.5615503559709E13,-0.43034363,2.9737854,9.421463
1.561550859511E13,-0.50904846,2.953247,9.372772
1.561551363051E13,-0.54286194,2.9574127,9.302246
1.561551866591E13,-0.5852356,2.9813232,9.295883
1.5615523701311E13,-0.63020325,2.981186,9.282837
1.5615528736711E13,-0.605072,2.9683838,9.258438
1.5615533772111E13,-0.589859,2.967926,9.209564
1.5615538807512E13,-0.56944275,3.0236664,9.1732025
1.5615543842912E13,-0.5635376,3.0722961,9.172104
1.5615548878313E13,-0.56259155,3.1079865,9.132904
1.5615553913713E13,-0.5515442,3.141922,9.110794
1.5615558949113E13,-0.5295868,3.1714478,9.128021
1.5615563984514E13,-0.5076599,3.218689,9.089859
1.5615569019914E13,-0.54771423,3.2323303,8.9917145
1.5615574055315E13,-0.5865936,3.2336884,8.911255
1.5615579090715E13,-0.6615906,3.2488403,8.989471
1.5615584126115E13,-0.7084961,3.2355652,9.122894
1.5615589161516E13,-0.71487427,3.206604,9.246765
1.5615594196916E13,-0.7015991,3.1493835,9.309616
1.5615599232317E13,-0.717865,3.1081696,9.531448
1.5615604267717E13,-0.75779724,3.0706482,9.784393
1.5615609303117E13,-0.7784424,3.1017914,9.971558
1.5615614338518E13,-0.7732086,3.089981,10.09462
1.5615619373918E13,-0.7856293,3.0145264,10.240997
1.5615624409319E13,-0.79478455,2.9872284,10.312576
1.5615629444719E13,-0.7407532,2.9875793,10.376892
1.5615634480119E13,-0.7171478,2.966858,10.333038
1.561563951552E13,-0.6518707,2.9933777,10.303696
1.561564455092E13,-0.6609497,2.9573517,10.185532
1.561564958632E13,-0.55529785,2.9832,10.112839
1.5615654621721E13,-0.48632813,3.127182,10.096924
1.5615659657121E13,-0.4371643,3.1580658,10.110413
1.5615664692522E13,-0.42095947,3.1807709,10.142212
1.5615669727922E13,-0.36317444,3.2202148,10.267456
1.5615674763322E13,-0.3824768,3.2298737,10.289261
1.5615679798723E13,-0.3975067,3.210846,10.417587
1.5615684834123E13,-0.39146423,3.1684418,10.412903
1.5615689869524E13,-0.375,3.2081146,10.49765
1.5615694904924E13,-0.44926453,3.1580353,10.411575
1.5615699940324E13,-0.45303345,3.1830902,10.343658
1.5615704975725E13,-0.5088043,3.1854858,10.064407
1.5615710011125E13,-0.519989,3.267273,9.832123
1.5615715046526E13,-0.5315857,3.2970734,9.470322
1.5615720081926E13,-0.5348816,3.3382568,9.213806
1.5615725117326E13,-0.58706665,3.3024292,9.119385
1.5615730152727E13,-0.5278015,3.2997284,9.222992
1.5615735188127E13,-0.48236084,3.2422333,9.349869
1.5615740223527E13,-0.39485168,3.2115479,9.707169
1.5615745258928E13,-0.32006836,3.1722717,10.096954
1.5615750294328E13,-0.26994324,3.1563263,10.354996
1.5615755329729E13,-0.35688782,3.009842,10.612595
1.5615760365129E13,-0.43917847,2.9355774,10.686432
1.5615765400529E13,-0.50016785,2.8691254,10.7229
1.561577043593E13,-0.6479645,2.7740936,10.771698
1.561577547133E13,-0.7620392,2.6901703,10.766418
1.5615780506731E13,-0.8805084,2.6814423,10.705185
1.5615785542131E13,-0.9539337,2.6216583,10.683563
1.5615790577531E13,-1.0348053,2.591858,10.682831
1.5615795612932E13,-1.0963898,2.5134125,10.626465
1.5615800648332E13,-1.1273041,2.3879395,10.4453125
1.5615805683733E13,-1.1478577,2.340805,10.240555
1.5615810719133E13,-1.1324768,2.3032532,10.101471
1.5615815754533E13,-1.1119232,2.3002472,10.003799
1.5615820789934E13,-1.0727539,2.2831268,9.887787
1.5615825825334E13,-1.0262299,2.2668152,9.781494
1.5615830860735E13,-0.97566223,2.2747345,9.734146
1.5615835896135E13,-0.9254761,2.281784,9.826035
1.5615840931535E13,-0.881958,2.2174683,10.024567
1.5615845966936E13,-0.8973236,2.1172943,10.239975
1.5615851002336E13,-0.88227844,2.052185,10.493576
1.5615856037736E13,-0.8543091,1.9715271,10.679565
1.5615861073137E13,-0.8644409,1.8752441,10.94516
1.5615866108537E13,-0.8842163,1.7575226,11.244598
1.5615871143938E13,-0.9051666,1.6648102,11.469711
1.5615876179338E13,-0.9431915,1.5956726,11.592819
1.5615881214738E13,-1.013977,1.5210571,11.625656
1.5615886250139E13,-1.0946655,1.4077911,11.552444
1.5615891285539E13,-1.140091,1.3102875,11.392212
1.561589632094E13,-1.135376,1.2274017,11.150101
1.561590135634E13,-1.1766052,1.2048035,10.85968
1.561590639174E13,-1.2082214,1.1976471,10.640701
1.5615911427141E13,-1.2144775,1.179779,10.450104
1.5615916462541E13,-1.1611481,1.1821136,10.25914
1.5615921497942E13,-1.0948181,1.183136,10.113159
1.5615926533342E13,-0.997406,1.2210846,9.918228
1.5615931568742E13,-0.95835876,1.2745056,9.647903
1.5615936604143E13,-0.96403503,1.3274689,9.458267
1.5615941639543E13,-0.9497223,1.3803253,9.170959
1.5615946674944E13,-0.8977356,1.443634,8.81369
1.5615951710344E13,-0.82084656,1.4138031,8.582581
1.5615956745744E13,-0.7327118,1.448349,8.499054
1.5615961781145E13,-0.6284027,1.4870148,8.430145
1.5615966816545E13,-0.5988312,1.4590607,8.349319
1.5615971851945E13,-0.6254425,1.4020538,8.276749
1.5615976887346E13,-0.67648315,1.2906189,8.1772
1.5615981922746E13,-0.68299866,1.2471008,8.102051
1.5615986958147E13,-0.65457153,1.2413177,8.131454
1.5615991993547E13,-0.6777649,1.2487488,8.283173
1.5615997028947E13,-0.61190796,1.2543945,8.522873
1.5616002064348E13,-0.537735,1.2608185,8.833099
1.5616007099748E13,-0.5016022,1.2766266,9.220428
1.5616012135149E13,-0.41625977,1.3146973,9.558075
1.5616017170549E13,-0.33506775,1.2426605,9.809021
1.5616022205949E13,-0.287735,1.2032776,9.901276
1.561602724135E13,-0.2399292,1.2378845,9.980408
1.561603227675E13,-0.21769714,1.2013245,9.888382
1.5616037312151E13,-0.18096924,1.2682495,9.828934
1.5616042347551E13,-0.17237854,1.2741241,9.865936
1.5616047382951E13,-0.19552612,1.2858734,9.932602
1.5616052418352E13,-0.1602478,1.3432312,10.017136
1.5616057453752E13,-0.14457703,1.350769,10.250351
1.5616062489152E13,-0.029190063,1.3840485,10.441177
1.5616067524553E13,-0.02456665,1.4032135,10.744064
1.5616072559953E13,-0.029968262,1.4624023,10.9925995
1.5616077595354E13,-0.11975098,1.384018,11.283112
1.5616082630754E13,-0.0887146,1.3870239,11.481705
1.5616087666154E13,-0.123306274,1.3711395,11.558502
1.5616092701555E13,-0.23356628,1.3645477,11.491547
1.5616097736955E13,-0.35112,1.3512268,11.2521515
1.5616102772356E13,-0.46688843,1.2762299,10.967606
1.5616107807756E13,-0.5744171,1.282547,10.573746
1.5616112843156E13,-0.63301086,1.3322906,10.249451
1.5616117878557E13,-0.6727905,1.3729401,9.976883
1.5616122913957E13,-0.6620331,1.4471588,9.70166
1.5616127949358E13,-0.63223267,1.5275421,9.437958
1.5616132984758E13,-0.58839417,1.5860901,9.229965
1.5616138020158E13,-0.5545654,1.6956482,8.965378
1.5616143055559E13,-0.45292664,1.7618103,8.800217
1.5616148090959E13,-0.35169983,1.8514862,8.657776
1.561615312636E13,-0.24414063,1.8742676,8.521957
1.561615816176E13,-0.18115234,1.894104,8.314575
1.561616319716E13,-0.1058197,1.9790955,8.153748
1.5616168232561E13,-0.07371521,2.0792236,8.059982
1.5616173267961E13,-0.08795166,2.1965027,7.960434
1.5616178303361E13,-0.09669495,2.2546844,7.9667816
1.5616183338762E13,-0.15283203,2.3211823,7.987549
1.5616188374162E13,-0.20785522,2.301056,8.069473
1.5616193409563E13,-0.22424316,2.3025208,8.236069
1.5616198444963E13,-0.28607178,2.2478943,8.382538
1.5616203480363E13,-0.3561554,2.1623993,8.633362
1.5616208515764E13,-0.42430115,2.1315613,8.903595
1.5616213551164E13,-0.50645447,2.10495,9.147324
1.5616218586565E13,-0.5270996,2.092575,9.383347
1.5616223621965E13,-0.58010864,2.1019745,9.586105
1.5616228657365E13,-0.6398926,2.0880432,9.675751
1.5616233692766E13,-0.642395,2.1225739,9.8181
1.5616238728166E13,-0.6294708,2.1953125,9.985092
1.5616243763567E13,-0.57392883,2.2254791,10.050461
1.5616248798967E13,-0.48420715,2.284912,10.043777
1.5616253834367E13,-0.4078369,2.3477173,9.997391
1.5616258869768E13,-0.37882996,2.3837433,9.89566
1.5616263905168E13,-0.3496704,2.4063263,9.768478
1.5616268940569E13,-0.3534088,2.4154053,9.645126
1.5616273975969E13,-0.36116028,2.458664,9.46109
1.5616279011369E13,-0.38320923,2.483551,9.342041
1.561628404677E13,-0.42825317,2.5378113,9.232986
1.561628908217E13,-0.4611969,2.5924377,9.131775
1.561629411757E13,-0.52204895,2.62117,9.14798
1.5616299152971E13,-0.5986023,2.647232,9.223175
1.5616304188371E13,-0.6383667,2.6175842,9.319061
1.5616309223772E13,-0.6679535,2.5511017,9.400711
1.5616314259172E13,-0.72846985,2.4906464,9.423233
1.5616319294572E13,-0.74220276,2.461792,9.442535
1.5616324329973E13,-0.77786255,2.4995575,9.47583
1.5616329365373E13,-0.84265137,2.4667206,9.496124
1.5616334400774E13,-0.89242554,2.5268707,9.418213
1.5616339436174E13,-0.88687134,2.5691833,9.446671
1.5616344471574E13,-0.89183044,2.597702,9.406113
1.5616349506975E13,-0.8309326,2.622589,9.371689
1.5616354542375E13,-0.80122375,2.6712189,9.453171
1.5616359577776E13,-0.7518463,2.7075806,9.459549
1.5616364613176E13,-0.7638092,2.726715,9.585922
1.5616369648576E13,-0.78019714,2.7415466,9.613968
1.5616374683977E13,-0.77934265,2.7647858,9.577621
1.5616379719377E13,-0.7991333,2.6712341,9.581055
1.5616384754777E13,-0.8410492,2.693573,9.568039
1.5616389790178E13,-0.8497925,2.669815,9.543915
1.5616394825578E13,-0.88531494,2.7362213,9.506317
1.5616399860979E13,-0.97143555,2.709732,9.564499
1.5616404896379E13,-0.95747375,2.6904907,9.625519
1.5616409931779E13,-0.9234772,2.6859741,9.812241
1.561641496718E13,-0.8780365,2.6950684,9.931183
1.561642000258E13,-0.9206848,2.609787,10.000748
1.5616425037981E13,-0.9543915,2.68396,10.019791
1.5616430073381E13,-0.9759674,2.6900482,10.059036
1.5616435108781E13,-0.9676361,2.6600342,10.038452
1.5616440144182E13,-0.9724579,2.693344,9.939377
1.5616445179582E13,-0.9767151,2.7407227,9.891495
1.5616450214983E13,-0.9754486,2.7652588,9.774979
1.5616455250383E13,-0.95292664,2.8159332,9.721237
1.5616460285783E13,-0.9200287,2.8440094,9.756012
1.5616465321184E13,-0.8875427,2.866562,9.815308
1.5616470356584E13,-0.8849945,2.8342743,9.800903
1.5616475391985E13,-0.8477936,2.841339,9.82843
1.5616480427385E13,-0.8426666,2.8472443,9.852264
1.5616485462785E13,-0.88653564,2.8055267,9.806885
1.5616490498186E13,-0.9306946,2.7865753,9.717041
1.5616495533586E13,-0.9813843,2.7391357,9.717575
1.5616500568986E13,-1.0193939,2.720169,9.617538
1.5616505604387E13,-0.98443604,2.7282104,9.548706
1.5616510639787E13,-0.9606476,2.7653809,9.502884
1.5616515675188E13,-0.9631958,2.7855988,9.4947815
1.5616520710588E13,-0.9569397,2.8094177,9.402481
1.5616525745988E13,-0.9230194,2.8418884,9.296936
1.5616530781389E13,-0.88186646,2.8504333,9.241394
1.5616535816789E13,-0.83288574,2.9020233,9.193268
1.561654085219E13,-0.7561493,2.9602814,9.168945
1.561654588759E13,-0.7453613,3.0104218,9.159744
1.561655092299E13,-0.74324036,2.998764,9.186417
1.5616555958391E13,-0.7168884,3.0027008,9.277985
1.5616560993791E13,-0.6574249,3.0232086,9.416382
1.5616566029192E13,-0.64208984,3.0395966,9.522644
1.5616571064592E13,-0.6771393,3.0486145,9.582809
1.5616576099992E13,-0.7324524,3.02417,9.6089325
1.5616581135393E13,-0.8149872,2.9879456,9.629272
1.5616586170793E13,-0.8399658,2.9432526,9.661606
1.5616591206194E13,-0.86727905,2.932846,9.700882
1.5616596241594E13,-0.8898468,2.9164886,9.702805
1.5616601276994E13,-0.9058838,2.893036,9.70636
1.5616606312395E13,-0.93325806,2.878479,9.750626
1.5616611347795E13,-0.9349823,2.8796997,9.724167
1.5616616383195E13,-0.9076538,2.920517,9.714401
1.5616621418596E13,-0.8627472,2.9258423,9.776382
1.5616626453996E13,-0.8101196,2.923584,9.821548
1.5616631489397E13,-0.76000977,2.9577484,9.911774
1.5616636524797E13,-0.73243713,2.9682922,10.006424
1.5616641560197E13,-0.7107239,2.9803162,10.127029
1.5616646595598E13,-0.7013397,3.0011444,10.167709
1.5616651630998E13,-0.6489868,3.0004425,10.224655
1.5616656666399E13,-0.6425934,3.0070496,10.171524
1.5616661701799E13,-0.63716125,2.9613953,10.080933
1.5616666737199E13,-0.6526489,2.8983002,10.003784
1.56166717726E13,-0.6871948,2.874298,10.034317
1.5616676808E13,-0.7271118,2.8530273,10.107513
1.5616681843401E13,-0.78144836,2.8683014,10.090408
1.5616686878801E13,-0.7438202,2.8932953,10.028259
1.5616691914201E13,-0.783905,2.8580933,9.791016
1.5616696949602E13,-0.8180237,2.7821655,9.619232
1.5616701985002E13,-0.79782104,2.7448883,9.575668
1.5616707020402E13,-0.81591797,2.6403198,9.659927
1.5616712055803E13,-0.7428894,2.5450592,9.763535
1.5616717091203E13,-0.61206055,2.4707336,10.00589
1.5616722126604E13,-0.39283752,2.4274597,10.214706
1.5616727162004E13,-0.21427917,2.4414215,10.323517
1.5616732197404E13,-0.08085632,2.4851227,10.622131
1.5616737232805E13,0.0042877197,2.5534058,10.859085
1.5616742268205E13,-0.005004883,2.5526276,11.1375885
1.5616747303606E13,-0.04878235,2.528656,11.441956
1.5616752339006E13,-0.017913818,2.3970795,11.71582
1.5616757374406E13,-0.13647461,2.192215,11.932465
1.5616762409807E13,-0.14089966,2.0598145,12.180649
1.5616767445207E13,-0.12477112,1.9361267,12.42131
1.5616772480608E13,-0.13006592,1.8630981,12.42627
1.5616777516008E13,-0.091918945,1.7733307,12.542969
1.5616782551408E13,-0.02166748,1.8111877,12.559906
1.5616787586809E13,0.05102539,1.8889923,12.491028
1.5616792622209E13,0.11437988,1.9026642,12.318848
1.561679765761E13,0.0909729,1.9614258,12.188202
1.561680269301E13,-0.009521484,1.939209,12.111435
1.561680772841E13,-0.16351318,1.9403534,11.922623
1.5616812763811E13,-0.3019867,1.8659058,11.635437
1.5616817799211E13,-0.41455078,1.7762299,11.290649
1.5616822834611E13,-0.51649475,1.7212677,10.913284
1.5616827870012E13,-0.61239624,1.683197,10.598099
1.5616832905412E13,-0.7362976,1.6936188,10.2846985
1.5616837940813E13,-0.7973938,1.6669617,10.018341
1.5616842976213E13,-0.88012695,1.6763611,9.649017
1.5616848011613E13,-0.9279938,1.7062988,9.404282
1.5616853047014E13,-0.9104614,1.7203217,9.236923
1.5616858082414E13,-0.84565735,1.7568665,9.066574
1.5616863117815E13,-0.80296326,1.7733917,8.916046
1.5616868153215E13,-0.738327,1.7604218,8.858734
1.5616873188615E13,-0.6379242,1.7883453,8.873764
1.5616878224016E13,-0.46250916,1.8756866,8.977951
1.5616883259416E13,-0.25131226,1.9484558,9.115326
1.5616888294817E13,-0.07077026,1.9728088,9.277344
1.5616893330217E13,0.03189087,2.006958,9.365494
1.5616898365617E13,0.12960815,2.0375977,9.3354645
1.5616903401018E13,0.20944214,2.056656,9.172501
1.5616908436418E13,0.26052856,2.0642395,8.974899
1.5616913471819E13,0.26145935,2.065689,8.827988
1.5616918507219E13,0.25839233,2.0709534,8.738831
1.5616923542619E13,0.22802734,2.030014,8.632629
1.561692857802E13,0.24024963,2.016922,8.550537
1.561693361342E13,0.25387573,1.9902191,8.507584
1.561693864882E13,0.23799133,1.9538422,8.513138
1.5616943684221E13,0.22901917,1.956253,8.595459
1.5616948719621E13,0.24311829,1.9534607,8.583237
1.5616953755022E13,0.28486633,1.9452667,8.559982
1.5616958790422E13,0.33399963,1.9432678,8.565262
1.5616963825822E13,0.3809662,1.9706879,8.4522705
1.5616968861223E13,0.3491974,1.9543762,8.387482
1.5616973896623E13,0.2842865,1.9005585,8.400101
1.5616978932024E13,0.21920776,1.8420868,8.47934
1.5616983967424E13,0.13491821,1.7750244,8.570831
1.5616989002824E13,0.03652954,1.7017822,8.69516
1.5616994038225E13,-0.07710266,1.636322,8.801422
1.5616999073625E13,-0.20988464,1.5531769,8.933273
1.5617004109026E13,-0.35191345,1.473877,9.167618
1.5617009144426E13,-0.39012146,1.4356384,9.481689
1.5617014179826E13,-0.39848328,1.4159698,9.613235
1.5617019215227E13,-0.44110107,1.335495,9.756058
1.5617024250627E13,-0.4608612,1.3002777,9.895264
1.5617029286027E13,-0.5048828,1.270401,10.040222
1.5617034321428E13,-0.47058105,1.3333282,10.186432
1.5617039356828E13,-0.4119568,1.4004974,10.367996
1.5617044392229E13,-0.39163208,1.4249115,10.482941
1.5617049427629E13,-0.37132263,1.4948425,10.596695
1.5617054463029E13,-0.41163635,1.4856873,10.782059
1.561705949843E13,-0.45037842,1.5323944,11.030945
1.561706453383E13,-0.5010376,1.6030121,11.31366
1.5617069569231E13,-0.49517822,1.618515,11.678192
1.5617074604631E13,-0.5233002,1.6531067,11.840637
1.5617079640031E13,-0.52490234,1.6986542,11.963593
1.5617084675432E13,-0.5466461,1.6826935,12.013748
1.5617089710832E13,-0.5281372,1.7169952,11.804306
1.5617094746233E13,-0.5609894,1.6919861,11.555939
1.5617099781633E13,-0.5279236,1.7069092,11.192322
1.5617104817033E13,-0.4963684,1.6813049,10.778519
1.5617109852434E13,-0.5411072,1.7788391,10.319443
1.5617114887834E13,-0.5142517,1.8372803,9.9752655
1.5617119923235E13,-0.4593811,1.9472351,9.661407
1.5617124958635E13,-0.42929077,2.082138,9.314575
1.5617129994035E13,-0.32254028,2.1633148,9.027237
1.5617135029436E13,-0.28663635,2.273285,8.771378
1.5617140064836E13,-0.3109436,2.2847748,8.565445
1.5617145100236E13,-0.21270752,2.3131866,8.459808
1.5617150135637E13,-0.159729,2.2125854,8.38739
1.5617155171037E13,-0.059692383,2.2032928,8.372238
1.5617160206438E13,0.07678223,2.2403107,8.366592
1.5617165241838E13,0.10241699,2.246292,8.441025
1.5617170277238E13,0.11437988,2.3355713,8.475433
1.5617175312639E13,0.13102722,2.361206,8.558456
1.5617180348039E13,0.14572144,2.3772736,8.662155
1.561718538344E13,0.18301392,2.3730774,8.699631
1.561719041884E13,0.1592102,2.3816986,8.719254
1.561719545424E13,0.16667175,2.377121,8.65033
1.5617200489641E13,0.18345642,2.2907867,8.662491
1.5617205525041E13,0.1503601,2.2507935,8.666351
1.5617210560442E13,0.1250763,2.2505035,8.748901
1.5617215595842E13,0.14292908,2.2390442,8.789307
1.5617220631242E13,0.18283081,2.2239685,8.807114
1.5617225666643E13,0.13600159,2.227188,8.834091
1.5617230702043E13,0.11152649,2.2269745,8.90036
1.5617235737444E13,0.058776855,2.2105255,9.0377655
1.5617240772844E13,0.020568848,2.219986,9.120972
1.5617245808244E13,-0.0042266846,2.22612,9.270416
1.5617250843645E13,0.004257202,2.212677,9.348328
1.5617255879045E13,-0.0017242432,2.2131653,9.40181
1.5617260914445E13,0.004714966,2.2427063,9.366165
1.5617265949846E13,0.02470398,2.2550201,9.27298
1.5617270985246E13,0.004486084,2.2535248,9.266922
1.5617276020647E13,-0.017288208,2.268982,9.23555
1.5617281056047E13,-0.054748535,2.2559814,9.186768
1.5617286091447E13,-0.084609985,2.223343,9.209061
1.5617291126848E13,-0.08502197,2.2239685,9.272324
1.5617296162248E13,-0.07443237,2.214325,9.300995
1.5617301197649E13,-0.109680176,2.1651306,9.347137
1.5617306233049E13,-0.14120483,2.149063,9.435455
1.5617311268449E13,-0.15638733,2.1798553,9.466156
1.561731630385E13,-0.14079285,2.2513123,9.465958
1.561732133925E13,-0.120269775,2.321167,9.5522
1.5617326374651E13,-0.11778259,2.371109,9.653915
1.5617331410051E13,-0.076293945,2.4037018,9.684494
1.5617336445451E13,-0.06842041,2.399109,9.739761
1.5617341480852E13,-0.10751343,2.3745728,9.810333
1.5617346516252E13,-0.14077759,2.3151398,9.760803
1.5617351551652E13,-0.18597412,2.271881,9.62146
1.5617356587053E13,-0.2597046,2.2943878,9.540146
1.5617361622453E13,-0.2806244,2.3055725,9.440887
1.5617366657854E13,-0.3209839,2.3500824,9.412979
1.5617371693254E13,-0.30513,2.4391937,9.41655
1.5617376728654E13,-0.23832703,2.5331726,9.412003
1.5617381764055E13,-0.13511658,2.6100311,9.551834
1.5617386799455E13,-0.04484558,2.6430664,9.565399
1.5617391834856E13,-0.011672974,2.6438446,9.605484
1.5617396870256E13,0.0076293945,2.6215363,9.64444
1.5617401905656E13,0.0037841797,2.6442719,9.663422
1.5617406941057E13,-0.042022705,2.658371,9.641449
1.5617411976457E13,-0.1366272,2.6023254,9.693527
1.5617417011858E13,-0.24671936,2.6575928,9.63826
1.5617422047258E13,-0.2814026,2.651886,9.595261
1.5617427082658E13,-0.29692078,2.6865387,9.569595
1.5617432118059E13,-0.30236816,2.7371216,9.532806
1.5617437153459E13,-0.27220154,2.7342377,9.50032
1.561744218886E13,-0.27200317,2.7423553,9.536453
1.561744722426E13,-0.22885132,2.8157806,9.584244
1.561745225966E13,-0.1990509,2.8910217,9.623444
1.5617457295061E13,-0.13250732,2.848175,9.770157
1.5617462330461E13,-0.08734131,2.8986053,9.734268
1.5617467365861E13,-0.06794739,2.8711548,9.66684
1.5617472401262E13,-0.09817505,2.8571472,9.647476
1.5617477436662E13,-0.16145325,2.8546906,9.693024
1.5617482472063E13,-0.27835083,2.8017426,9.73967
1.5617487507463E13,-0.2993927,2.7189178,9.869537
1.5617492542863E13,-0.28152466,2.716629,9.934174
1.5617497578264E13,-0.2798767,2.7121887,9.964767
1.5617502613664E13,-0.34184265,2.7166595,9.99472
1.5617507649065E13,-0.31837463,2.7388153,9.901886
1.5617512684465E13,-0.35440063,2.7759247,9.781616
1.5617517719865E13,-0.33451843,2.7951813,9.732178
1.5617522755266E13,-0.24913025,2.846634,9.674408
1.5617527790666E13,-0.17967224,2.9444122,9.621201
1.5617532826067E13,-0.092437744,2.9685059,9.652039
1.5617537861467E13,-0.025787354,2.9499207,9.655914
1.5617542896867E13,-0.051071167,2.8993683,9.633728
1.5617547932268E13,-0.09503174,2.8141632,9.690353
1.5617552967668E13,-0.11836243,2.8038177,9.679123
1.5617558003069E13,-0.16157532,2.8180542,9.675491
1.5617563038469E13,-0.17256165,2.7932281,9.589691
1.5617568073869E13,-0.18687439,2.802887,9.539505
1.561757310927E13,-0.19117737,2.8455353,9.433823
1.561757814467E13,-0.20283508,2.926651,9.394348
1.561758318007E13,-0.15019226,2.945877,9.253433
1.5617588215471E13,-0.13600159,2.9606476,9.139328
1.5617593250871E13,-0.15962219,2.9377594,9.121475
1.5617598286272E13,-0.20309448,2.9211426,9.175949
1.5617603321672E13,-0.26976013,2.8476563,9.204529
1.5617608357072E13,-0.34960938,2.754547,9.2647705
1.5617613392473E13,-0.38894653,2.6713104,9.376236
1.5617618427873E13,-0.43981934,2.6341858,9.42363
1.5617623463274E13,-0.5139313,2.6382904,9.422806
1.5617628498674E13,-0.5547333,2.667038,9.442886
1.5617633534074E13,-0.59051514,2.6752472,9.472153
1.5617638569475E13,-0.6305237,2.6577911,9.468399
1.5617643604875E13,-0.65049744,2.6862488,9.434479
1.5617648640276E13,-0.6555176,2.710907,9.322571
1.5617653675676E13,-0.67985535,2.6835785,9.224014
1.5617658711076E13,-0.74368286,2.6163483,9.151794
1.5617663746477E13,-0.8423004,2.5454102,9.08168
1.5617668781877E13,-0.8951721,2.4831696,9.139038
1.5617673817277E13,-0.8897095,2.4111176,9.36644
1.5617678852678E13,-0.81684875,2.386383,9.658234
1.5617683888078E13,-0.6925354,2.3776703,9.990448
1.5617688923479E13,-0.6097412,2.3868713,10.319687
1.5617693958879E13,-0.58638,2.423645,10.638046
1.5617698994279E13,-0.59742737,2.4651337,10.898148
1.561770402968E13,-0.6779022,2.4684296,11.015137
1.561770906508E13,-0.8287811,2.4552917,10.871353
1.5617714100481E13,-0.9450989,2.4029236,10.659821
1.5617719135881E13,-1.0988159,2.3156738,10.366379
1.5617724171281E13,-1.2470703,2.1928253,10.147415
1.5617729206682E13,-1.3336945,2.119217,9.9088745
1.5617734242082E13,-1.3570099,2.0645752,9.77301
1.5617739277483E13,-1.2533264,2.082901,9.814056
1.5617744312883E13,-1.0242615,2.1735535,9.973663
1.5617749348283E13,-0.8064728,2.2575989,10.256149
1.5617754383684E13,-0.5730133,2.3430634,10.639618
1.5617759419084E13,-0.44200134,2.3441162,11.009155
1.5617764454485E13,-0.3144226,2.3870087,11.516434
1.5617769489885E13,-0.2792511,2.3598785,12.091614
1.5617774525285E13,-0.37005615,2.225708,12.595947
1.5617779560686E13,-0.43315125,2.0959015,12.976135
1.5617784596086E13,-0.5679321,1.923706,13.291885
1.5617789631486E13,-0.71772766,1.7133331,13.496216
1.5617794666887E13,-0.8976135,1.5493164,13.404785
1.5617799702287E13,-1.0039673,1.444519,13.122208
1.5617804737688E13,-1.0796509,1.378128,12.656525
1.5617809773088E13,-1.0909271,1.2653656,12.008713
1.5617814808488E13,-1.1740417,1.3007965,11.597946
1.5617819843889E13,-1.1313934,1.3703766,11.243332
1.5617824879289E13,-1.0589294,1.4630127,10.826736
1.561782991469E13,-0.89701843,1.5468445,10.442368
1.561783495009E13,-0.7335205,1.5732117,10.078308
1.561783998549E13,-0.6903229,1.596878,9.692413
1.5617845020891E13,-0.67951965,1.6130219,9.517746
1.5617850056291E13,-0.6568756,1.6230011,9.235428
1.5617855091692E13,-0.6353607,1.656601,8.973862
1.5617860127092E13,-0.6557617,1.629776,8.754105
1.5617865162492E13,-0.620636,1.6022491,8.583359
1.5617870197893E13,-0.6668854,1.5781403,8.623016
1.5617875233293E13,-0.67385864,1.539978,8.64476
1.5617880268694E13,-0.7193756,1.5438385,8.676254
1.5617885304094E13,-0.72172546,1.5107422,8.686417
1.5617890339494E13,-0.7323761,1.4993134,8.698547
1.5617895374895E13,-0.7039795,1.4588013,8.774582
1.5617900410295E13,-0.6887207,1.3872223,8.778778
1.5617905445695E13,-0.7012329,1.3588867,8.78775
1.5617910481096E13,-0.70892334,1.3139954,8.785873
1.5617915516496E13,-0.7637634,1.2483978,8.82164
1.5617920551897E13,-0.7700348,1.1958313,8.867493
1.5617925587297E13,-0.7318115,1.1939392,8.984268
1.5617930622697E13,-0.69958496,1.2028046,9.058624
1.5617935658098E13,-0.65016174,1.20755,9.061676
1.5617940693498E13,-0.6047516,1.2224579,9.08197
1.5617945728899E13,-0.5458069,1.2488098,9.071152
1.5617950764299E13,-0.48246765,1.2777405,9.054016
1.5617955799699E13,-0.41963196,1.3248901,9.073639
1.56179608351E13,-0.33821106,1.3504791,9.090561
1.56179658705E13,-0.28878784,1.4238434,9.17424
1.5617970905901E13,-0.28492737,1.4514618,9.241852
1.5617975941301E13,-0.31700134,1.4214935,9.27211
1.5617980976701E13,-0.38298035,1.3340912,9.293228
1.5617986012102E13,-0.48892212,1.2603455,9.402451
1.5617991047502E13,-0.60235596,1.2096558,9.483383
1.5617996082902E13,-0.65815735,1.1493988,9.546173
1.5618001118303E13,-0.7351074,1.0897217,9.5993805
1.5618006153703E13,-0.82728577,1.039566,9.641724
1.5618011189104E13,-0.8854523,1.0143433,9.717178
1.5618016224504E13,-0.90986633,1.0264282,9.808228
1.5618021259904E13,-0.8935852,1.0314026,9.930237
1.5618026295305E13,-0.8346863,1.0731354,10.044815
1.5618031330705E13,-0.8104553,1.1150665,10.124313
1.5618036366106E13,-0.78230286,1.1522217,10.255234
1.5618041401506E13,-0.7501068,1.206604,10.463287
1.5618046436906E13,-0.7228241,1.1885071,10.670151
1.5618051472307E13,-0.74653625,1.2067413,10.79686
1.5618056507707E13,-0.7332916,1.2288208,10.90947
1.5618061543108E13,-0.73197937,1.1970215,11.03183
1.5618066578508E13,-0.79382324,1.1951447,11.034149
1.5618071613908E13,-0.8642273,1.1757202,11.042816
1.5618076649309E13,-0.92282104,1.1634827,10.996338
1.5618081684709E13,-0.8961029,1.1349335,10.841904
1.561808672011E13,-0.87698364,1.1525269,10.670731
