t,ax,ay,az 
1.5122200479373E13,-0.20109558,0.025253296,10.020004
1.5122205514773E13,-0.21899414,0.03427124,9.689926
1.5122210550174E13,-0.22824097,0.053710938,9.579193
1.5122215585574E13,-0.23165894,0.049209595,9.760498
1.5122220620974E13,-0.24577332,0.047683716,9.986633
1.5122225656375E13,-0.23274231,0.0087890625,10.094833
1.5122230691775E13,-0.17759705,0.04524231,10.124252
1.5122235727176E13,-0.18890381,0.09051514,10.072449
1.5122240762576E13,-0.24389648,0.058425903,9.874878
1.5122245797976E13,-0.19630432,0.06666565,9.812775
1.5122250833377E13,-0.2077179,0.08886719,9.801544
1.5122255868777E13,-0.23239136,0.04685974,9.89917
1.5122260904177E13,-0.23454285,0.05380249,9.999756
1.5122265939578E13,-0.19342041,0.070007324,10.056442
1.5122270974978E13,-0.21775818,0.015716553,9.978836
1.5122276010379E13,-0.20944214,0.035369873,9.90152
1.5122281045779E13,-0.21000671,0.07098389,9.865463
1.5122286081179E13,-0.22764587,0.052719116,9.853714
1.512229111658E13,-0.25393677,0.07122803,9.930939
1.512229615198E13,-0.20861816,0.034210205,9.967972
1.5122301187381E13,-0.23509216,0.0043029785,9.990036
1.5122306222781E13,-0.19950867,0.04460144,10.002502
1.5122311258181E13,-0.23338318,0.038909912,9.93277
1.5122316293582E13,-0.26480103,0.03878784,9.924347
1.5122321328982E13,-0.22088623,0.023345947,9.935333
1.5122326364383E13,-0.36393738,0.17555237,10.140015
1.5122331399783E13,-0.22306824,0.0680542,9.958832
1.5122336435183E13,-0.25053406,0.010559082,9.988388
1.5122341470584E13,-0.19299316,0.06895447,10.037445
1.5122346505984E13,-0.18502808,0.090927124,9.979919
1.5122351541384E13,-0.19845581,0.055358887,9.926849
1.5122356576785E13,-0.21549988,0.043045044,9.953217
1.5122361612185E13,-0.22032166,0.0418396,9.979172
1.5122366647586E13,-0.22177124,0.054229736,10.00148
1.5122371682986E13,-0.20175171,-0.009277344,10.022598
1.5122376718386E13,-0.19563293,0.045578003,10.013062
1.5122381753787E13,-0.20481873,0.039230347,10.019684
1.5122386789187E13,-0.19468689,0.0084991455,10.032806
1.5122391824588E13,-0.253479,0.030670166,10.003403
1.5122396859988E13,-0.22843933,0.0345459,10.033478
1.5122401895388E13,-0.22972107,0.04096985,10.0503845
1.5122406930789E13,-0.20814514,-0.01574707,9.998611
1.5122411966189E13,-0.19515991,0.04664612,10.023804
1.512241700159E13,-0.21844482,0.05392456,10.040924
1.512242203699E13,-0.17726135,0.033111572,10.015503
1.512242707239E13,-0.24829102,0.026550293,10.024521
1.5122432107791E13,-0.23498535,0.03451538,10.005081
1.5122437143191E13,-0.22744751,0.037643433,10.008377
1.5122442178592E13,-0.21998596,0.025360107,9.96608
1.5122447213992E13,-0.22772217,0.021514893,9.998978
1.5122452249392E13,-0.23352051,0.02470398,10.031509
1.5122457284793E13,-0.23590088,0.013122559,9.999161
1.5122462320193E13,-0.22322083,0.025802612,10.03186
1.5122467355593E13,-0.21650696,0.03779602,10.030609
1.5122472390994E13,-0.21243286,0.0448761,10.0082855
1.5122477426394E13,-0.21391296,0.044830322,10.01915
1.5122482461795E13,-0.22940063,0.04269409,10.011078
1.5122487497195E13,-0.23880005,0.04737854,10.000687
1.5122492532595E13,-0.22117615,0.06201172,9.984482
1.5122497567996E13,-0.21655273,0.040405273,10.012955
1.5122502603396E13,-0.23323059,0.041503906,10.02124
1.5122507638797E13,-0.2185669,0.054260254,10.021896
1.5122512674197E13,-0.21650696,0.05580139,10.019363
1.5122517709597E13,-0.21798706,0.045333862,10.026077
1.5122522744998E13,-0.22686768,0.03831482,10.0177765
1.5122527780398E13,-0.21795654,0.052871704,10.032623
1.5122532815799E13,-0.21688843,0.06088257,10.021713
1.5122537851199E13,-0.2004242,0.06124878,10.049866
1.5122542886599E13,-0.19885254,0.037750244,10.038101
1.5122547922E13,-0.21842957,0.038604736,9.9878235
1.51225529574E13,-0.20433044,0.049194336,10.030106
1.5122557992801E13,-0.2146759,0.056747437,10.044083
1.5122563028201E13,-0.20552063,0.06259155,10.016571
1.5122568063601E13,-0.20870972,0.059402466,10.050598
1.5122573099002E13,-0.24331665,0.051345825,10.024887
1.5122578134402E13,-0.23071289,0.054901123,10.035858
1.5122583169802E13,-0.2264862,0.034317017,9.9900055
1.5122588205203E13,-0.21974182,0.029266357,10.022064
1.5122593240603E13,-0.23028564,0.004470825,10.021606
1.5122598276004E13,-0.22395325,0.022064209,9.988617
1.5122603311404E13,-0.23786926,0.03526306,10.01947
1.5122608346804E13,-0.227005,0.04559326,10.018539
1.5122613382205E13,-0.21653748,0.048309326,10.016632
1.5122618417605E13,-0.21499634,0.021774292,10.013611
1.5122623453006E13,-0.2131195,0.050186157,10.008621
1.5122628488406E13,-0.2204895,0.07003784,10.015488
1.5122633523806E13,-0.21214294,0.036087036,9.975128
1.5122638559207E13,-0.22445679,0.055648804,10.017899
1.5122643594607E13,-0.18572998,0.045791626,10.026657
1.5122648630008E13,-0.19680786,0.047424316,10.030548
1.5122653665408E13,-0.22393799,0.029312134,9.987106
1.5122658700808E13,-0.1925354,0.007537842,10.024399
1.5122663736209E13,-0.20852661,0.049240112,10.029037
1.5122668771609E13,-0.18360901,0.044189453,9.971329
1.5122673807009E13,-0.2064209,0.054779053,10.021133
1.512267884241E13,-0.18452454,0.049072266,10.037018
1.512268387781E13,-0.20484924,0.06915283,10.029297
1.5122688913211E13,-0.22898865,0.07913208,10.050201
1.5122693948611E13,-0.20547485,0.026885986,10.059982
1.5122698984011E13,-0.20524597,0.036727905,10.082947
1.5122704019412E13,-0.18763733,0.062149048,10.014648
1.5122709054812E13,-0.23701477,0.044189453,10.010162
1.5122714090213E13,-0.22425842,0.053588867,10.03952
1.5122719125613E13,-0.21847534,0.06338501,9.978149
1.5122724161013E13,-0.19958496,0.072402954,10.027634
1.5122729196414E13,-0.19104004,0.050491333,9.985352
1.5122734231814E13,-0.23641968,0.07395935,10.007187
1.5122739267215E13,-0.23532104,0.08981323,10.067398
1.5122744302615E13,-0.21551514,0.04876709,10.028137
1.5122749338015E13,-0.23335266,-0.033462524,10.04689
1.5122754373416E13,-0.233078,0.015609741,10.020737
1.5122759408816E13,-0.2510376,0.073394775,10.054871
1.5122764444217E13,-0.24369812,0.03276062,10.008041
1.5122769479617E13,-0.24913025,0.02973938,10.013809
1.5122774515017E13,-0.2155304,0.03501892,10.035507
1.5122779550418E13,-0.23979187,-0.00440979,10.016724
1.5122784585818E13,-0.23146057,0.034851074,9.987549
1.5122789621218E13,-0.2513733,0.06021118,9.983902
1.5122794656619E13,-0.25360107,0.060806274,9.996857
1.5122799692019E13,-0.217453,0.05508423,9.987991
1.512280472742E13,-0.22914124,0.03627014,10.031418
1.512280976282E13,-0.21884155,0.050872803,10.007248
1.512281479822E13,-0.22442627,0.040603638,10.011826
1.5122819833621E13,-0.22691345,0.030838013,10.017929
1.5122824869021E13,-0.22369385,0.026260376,10.052078
1.5122829904422E13,-0.22172546,0.025039673,10.034164
1.5122834939822E13,-0.21202087,0.056930542,9.991867
1.5122839975222E13,-0.22332764,0.048965454,9.987915
1.5122845010623E13,-0.22486877,0.033966064,9.989426
1.5122850046023E13,-0.20587158,0.031845093,9.973694
1.5122855081424E13,-0.22024536,0.05305481,9.985718
1.5122860116824E13,-0.22325134,0.07354736,10.028915
1.5122865152224E13,-0.21691895,0.048324585,10.028427
1.5122870187625E13,-0.23841858,0.015274048,10.013443
1.5122875223025E13,-0.23144531,0.011367798,10.03273
1.5122880258426E13,-0.21160889,0.025604248,10.040878
1.5122885293826E13,-0.18180847,0.050064087,10.035919
1.5122890329226E13,-0.20362854,0.048675537,10.020615
1.5122895364627E13,-0.24214172,0.025024414,10.021713
1.5122900400027E13,-0.23205566,0.04232788,10.012955
1.5122905435427E13,-0.24456787,0.06123352,10.030457
1.5122910470828E13,-0.2234497,0.06568909,10.059067
1.5122915506228E13,-0.21209717,0.067108154,10.071045
1.5122920541629E13,-0.22792053,0.059509277,10.040161
1.5122925577029E13,-0.2268982,0.07147217,10.030792
1.5122930612429E13,-0.25228882,0.054748535,10.042435
1.512293564783E13,-0.25357056,0.0418396,10.017258
1.512294068323E13,-0.22094727,0.023223877,10.013794
1.5122945718631E13,-0.21972656,0.015563965,10.047699
1.5122950754031E13,-0.23789978,0.042495728,10.016052
1.5122955789431E13,-0.22358704,0.06376648,10.029251
1.5122960824832E13,-0.22348022,0.05378723,10.011826
1.5122965860232E13,-0.22518921,0.05001831,10.036011
1.5122970895633E13,-0.23329163,0.031402588,10.010162
1.5122975931033E13,-0.2414093,0.02947998,10.010651
1.5122980966433E13,-0.22935486,0.022750854,9.985153
1.5122986001834E13,-0.23194885,0.045700073,9.989136
1.5122991037234E13,-0.20956421,0.041763306,10.021591
1.5122996072634E13,-0.26049805,0.03303528,10.002258
1.5123001108035E13,-0.26480103,0.043289185,10.034561
1.5123006143435E13,-0.24607849,0.04776001,10.048843
1.5123011178836E13,-0.21937561,0.0423584,10.044525
1.5123016214236E13,-0.22317505,0.057510376,10.004486
1.5123021249636E13,-0.23904419,0.06642151,10.020905
1.5123026285037E13,-0.24118042,0.06945801,10.005249
1.5123031320437E13,-0.23260498,0.05899048,10.020035
1.5123036355838E13,-0.21342468,0.06187439,9.991501
1.5123041391238E13,-0.22789001,0.03831482,10.001633
1.5123046426638E13,-0.23374939,0.047576904,10.011795
1.5123051462039E13,-0.21582031,0.06880188,10.026047
1.5123056497439E13,-0.24269104,0.03050232,10.012817
1.512306153284E13,-0.22019958,0.02458191,10.0030365
1.512306656824E13,-0.27264404,0.013473511,10.000656
1.512307160364E13,-0.2597046,0.03425598,9.946701
1.5123076639041E13,-0.21768188,0.05230713,10.023987
1.5123081674441E13,-0.22831726,0.024490356,10.010101
1.5123086709842E13,-0.20439148,0.083465576,9.953766
1.5123091745242E13,-0.22819519,0.027145386,10.017014
1.5123096780642E13,-0.2102356,0.03164673,10.014755
1.5123101816043E13,-0.23059082,0.069503784,10.012833
1.5123106851443E13,-0.23980713,0.06640625,10.037415
1.5123111886843E13,-0.20742798,0.057540894,10.006912
1.5123116922244E13,-0.22859192,0.050842285,10.01799
1.5123121957644E13,-0.26431274,0.024749756,10.012634
1.5123126993045E13,-0.21324158,0.0572052,10.040787
1.5123132028445E13,-0.21464539,0.051467896,9.998825
1.5123137063845E13,-0.19819641,0.060134888,10.042801
1.5123142099246E13,-0.23324585,0.072280884,10.017441
1.5123147134646E13,-0.21562195,0.031036377,10.040237
1.5123152170047E13,-0.26478577,0.02708435,9.985062
1.5123157205447E13,-0.23849487,0.045547485,10.03038
1.5123162240847E13,-0.23814392,0.007293701,10.050476
1.5123167276248E13,-0.20974731,0.02961731,10.038147
1.5123172311648E13,-0.21499634,0.019989014,9.996307
1.5123177347049E13,-0.21157837,0.02961731,10.0215
1.5123182382449E13,-0.20176697,0.044403076,10.003525
1.5123187417849E13,-0.19833374,0.05444336,10.003998
1.512319245325E13,-0.19360352,0.033172607,9.989441
1.512319748865E13,-0.20532227,0.04005432,9.993332
1.5123202524051E13,-0.23239136,0.029907227,10.02977
1.5123207559451E13,-0.20785522,0.049179077,9.996475
1.5123212594851E13,-0.21124268,0.04899597,9.997467
1.5123217630252E13,-0.21490479,0.047576904,10.020065
1.5123222665652E13,-0.21905518,0.03503418,10.0095825
1.5123227701052E13,-0.22470093,0.015579224,10.031296
1.5123232736453E13,-0.21704102,0.025863647,10.037201
1.5123237771853E13,-0.22616577,0.032958984,9.982285
1.5123242807254E13,-0.23912048,0.043807983,9.975494
1.5123247842654E13,-0.22549438,0.038726807,10.009308
1.5123252878054E13,-0.19833374,0.019500732,10.014526
1.5123257913455E13,-0.21963501,0.024520874,10.026657
1.5123262948855E13,-0.2181549,0.02822876,10.0399475
1.5123267984256E13,-0.2034607,0.04888916,10.0329895
1.5123273019656E13,-0.20785522,0.043548584,10.024277
1.5123278055056E13,-0.20547485,0.039093018,10.039978
1.5123283090457E13,-0.21891785,0.038589478,10.050781
1.5123288125857E13,-0.24301147,0.023773193,10.01442
1.5123293161258E13,-0.24186707,0.030960083,9.983398
1.5123298196658E13,-0.24119568,0.025894165,9.965698
1.5123303232058E13,-0.22827148,0.05543518,9.991974
1.5123308267459E13,-0.21643066,0.06544495,10.062363
1.5123313302859E13,-0.19898987,0.039260864,10.046463
1.5123318338259E13,-0.18881226,0.02381897,9.985962
1.512332337366E13,-0.22383118,0.04043579,10.013321
1.512332840906E13,-0.21038818,0.070129395,10.023224
1.5123333444461E13,-0.2036438,0.045425415,9.994095
1.5123338479861E13,-0.20295715,0.018707275,10.025574
1.5123343515261E13,-0.20928955,0.040664673,10.006317
1.5123348550662E13,-0.22311401,0.05418396,10.011948
1.5123353586062E13,-0.2340393,0.046539307,10.01062
1.5123358621463E13,-0.23461914,0.06889343,9.975021
1.5123363656863E13,-0.2032013,0.070007324,10.038467
1.5123368692263E13,-0.19303894,0.037887573,10.021118
1.5123373727664E13,-0.22227478,0.04838562,10.042053
1.5123378763064E13,-0.24093628,0.035583496,9.998032
1.5123383798465E13,-0.22384644,0.03164673,10.025635
1.5123388833865E13,-0.21775818,0.045639038,10.013794
1.5123393869265E13,-0.22305298,0.055862427,10.021347
1.5123398904666E13,-0.20419312,0.0029144287,10.07106
1.5123403940066E13,-0.21951294,0.01234436,10.00386
1.5123408975467E13,-0.22003174,0.023452759,10.025101
1.5123414010867E13,-0.22624207,0.005065918,10.050644
1.5123419046267E13,-0.24223328,-0.0034942627,10.028748
1.5123424081668E13,-0.23123169,0.032943726,10.024612
1.5123429117068E13,-0.1733551,0.0947113,10.06456
1.5123434152468E13,-0.22216797,0.045898438,10.053467
1.5123439187869E13,-0.24528503,0.022781372,10.00209
1.5123444223269E13,-0.17819214,0.026794434,10.021515
1.512344925867E13,-0.21003723,0.06945801,10.0408325
1.512345429407E13,-0.2258606,0.040725708,10.056564
1.512345932947E13,-0.21546936,0.04586792,10.017319
1.5123464364871E13,-0.2340393,0.04284668,10.024979
1.5123469400271E13,-0.23300171,0.024154663,10.043671
1.5123474435672E13,-0.21232605,0.019836426,10.047104
1.5123479471072E13,-0.20982361,0.05847168,9.994583
1.5123484506472E13,-0.23632813,0.06692505,9.979919
1.5123489541873E13,-0.22729492,0.03565979,10.034149
1.5123494577273E13,-0.2088623,0.0320282,9.958588
1.5123499612674E13,-0.19865417,0.05091858,9.986877
1.5123504648074E13,-0.19735718,0.037078857,10.008972
1.5123509683474E13,-0.18235779,0.03945923,10.015106
1.5123514718875E13,-0.2157135,0.032821655,10.006668
1.5123519754275E13,-0.22431946,0.057556152,10.038773
1.5123524789676E13,-0.22767639,0.023590088,10.027679
1.5123529825076E13,-0.20022583,0.034454346,10.011597
1.5123534860476E13,-0.20085144,0.089141846,9.981461
1.5123539895877E13,-0.2102356,0.085250854,10.02179
1.5123544931277E13,-0.21780396,0.08718872,10.034561
1.5123549966677E13,-0.25196838,0.03375244,10.0177765
1.5123555002078E13,-0.25086975,0.038131714,10.00441
1.5123560037478E13,-0.23057556,0.0809021,9.983994
1.5123565072879E13,-0.2102356,0.062332153,10.030716
1.5123570108279E13,-0.22059631,0.048614502,10.029739
1.5123575143679E13,-0.23509216,0.0460968,10.039093
1.512358017908E13,-0.2144165,0.05632019,10.042114
1.512358521448E13,-0.21826172,0.060073853,10.033585
1.5123590249881E13,-0.20146179,0.043182373,10.044617
1.5123595285281E13,-0.21409607,0.026641846,10.013123
1.5123600320681E13,-0.21524048,0.045333862,10.047333
1.5123605356082E13,-0.21466064,0.04197693,10.0282135
1.5123610391482E13,-0.21739197,0.02949524,10.055038
1.5123615426883E13,-0.24732971,0.060531616,10.051468
1.5123620462283E13,-0.23854065,0.048309326,10.035919
1.5123625497683E13,-0.18138123,0.0493927,10.027618
1.5123630533084E13,-0.19081116,0.0370636,9.998001
1.5123635568484E13,-0.22613525,0.023956299,9.98407
1.5123640603884E13,-0.216156,0.02571106,10.012268
1.5123645639285E13,-0.21850586,0.060897827,10.012039
1.5123650674685E13,-0.22990417,0.06726074,9.999542
1.5123655710086E13,-0.23468018,0.031158447,9.998886
1.5123660745486E13,-0.22203064,0.03302002,10.020126
1.5123665780886E13,-0.22627258,0.039886475,10.020325
1.5123670816287E13,-0.22016907,0.04849243,10.050812
1.5123675851687E13,-0.24565125,0.052612305,10.027649
1.5123680887088E13,-0.2538452,0.049240112,10.023788
1.5123685922488E13,-0.24943542,0.036575317,10.018768
1.5123690957888E13,-0.24337769,0.0320282,9.987991
1.5123695993289E13,-0.20722961,0.039855957,10.014099
1.5123701028689E13,-0.19351196,0.03416443,9.987747
1.512370606409E13,-0.21824646,0.0388031,10.000595
1.512371109949E13,-0.23739624,0.06462097,10.006561
1.512371613489E13,-0.22293091,0.06452942,10.015427
1.5123721170291E13,-0.19146729,0.035095215,10.036026
1.5123726205691E13,-0.20428467,0.013793945,10.036667
1.5123731241092E13,-0.21850586,0.034744263,10.014526
1.5123736276492E13,-0.2268982,0.043548584,10.009399
1.5123741311892E13,-0.22927856,0.034484863,10.01181
1.5123746347293E13,-0.23480225,0.039001465,10.056549
1.5123751382693E13,-0.21031189,0.025497437,10.0416565
1.5123756418093E13,-0.21757507,0.047821045,10.018311
1.5123761453494E13,-0.19689941,0.034072876,10.057495
1.5123766488894E13,-0.20106506,0.05883789,10.02179
1.5123771524295E13,-0.21910095,0.050964355,10.000381
1.5123776559695E13,-0.20793152,0.038146973,10.008255
1.5123781595095E13,-0.19396973,0.026809692,10.025345
1.5123786630496E13,-0.21199036,0.04321289,10.035278
1.5123791665896E13,-0.2192688,0.052322388,10.040451
1.5123796701297E13,-0.21328735,0.016326904,10.060394
1.5123801736697E13,-0.21261597,0.067352295,9.996658
1.5123806772097E13,-0.22593689,0.047683716,10.046448
1.5123811807498E13,-0.21852112,0.056396484,10.033707
1.5123816842898E13,-0.2082367,0.06468201,10.008575
1.5123821878299E13,-0.21940613,0.055740356,10.037628
1.5123826913699E13,-0.24562073,0.038986206,10.01741
1.5123831949099E13,-0.27212524,0.014984131,9.988571
1.51238369845E13,-0.21261597,0.067352295,9.967148
1.51238420199E13,-0.23532104,0.076431274,10.003479
1.5123847055301E13,-0.22460938,0.07484436,10.0386505
1.5123852090701E13,-0.22415161,0.023162842,10.04332
1.5123857126101E13,-0.18222046,0.041000366,10.084122
1.5123862161502E13,-0.25224304,0.039352417,10.084763
1.5123867196902E13,-0.21398926,0.046325684,10.038696
1.5123872232302E13,-0.20437622,0.050048828,10.01738
1.5123877267703E13,-0.23855591,0.03251648,10.085724
1.5123882303103E13,-0.22393799,0.04071045,10.024353
1.5123887338504E13,-0.2482605,0.049209595,9.966797
1.5123892373904E13,-0.22721863,0.025741577,9.923843
1.5123897409304E13,-0.20066833,0.020874023,10.051819
1.5123902444705E13,-0.2507019,0.02633667,9.954422
1.5123907480105E13,-0.24160767,0.026901245,10.022858
1.5123912515506E13,-0.2119751,0.043426514,10.030167
1.5123917550906E13,-0.23210144,0.03564453,10.047653
1.5123922586306E13,-0.22250366,0.02407837,10.056107
1.5123927621707E13,-0.23768616,-0.016860962,10.025589
1.5123932657107E13,-0.2315979,0.029327393,9.995361
1.5123937692508E13,-0.21557617,0.038116455,10.033417
1.5123942727908E13,-0.20176697,0.03982544,10.080322
1.5123947763308E13,-0.22175598,0.053344727,10.067184
1.5123952798709E13,-0.23693848,0.05130005,10.058731
1.5123957834109E13,-0.22212219,0.007507324,9.99794
1.5123962869509E13,-0.22923279,0.0031738281,9.972565
1.512396790491E13,-0.2012024,0.070251465,9.978439
1.512397294031E13,-0.23428345,0.049438477,10.0360565
1.5123977975711E13,-0.24926758,0.038650513,10.04718
1.5123983011111E13,-0.21600342,0.06440735,10.0457
1.5123988046511E13,-0.21658325,0.047302246,10.029404
1.5123993081912E13,-0.21980286,0.018188477,9.998413
1.5123998117312E13,-0.20785522,0.04664612,10.013763
1.5124003152713E13,-0.22065735,0.048553467,10.026276
1.5124008188113E13,-0.20794678,0.036071777,10.020569
1.5124013223513E13,-0.1892395,0.012054443,10.0351715
1.5124018258914E13,-0.20980835,0.03186035,10.0271
1.5124023294314E13,-0.22377014,0.05895996,10.005478
1.5124028329715E13,-0.22055054,0.043548584,9.993561
1.5124033365115E13,-0.21665955,0.036010742,10.029373
1.5124038400515E13,-0.23098755,0.015029907,10.006088
1.5124043435916E13,-0.21781921,0.01902771,9.990021
1.5124048471316E13,-0.20562744,0.043029785,10.0099945
1.5124053506717E13,-0.21180725,0.047790527,9.991562
1.5124058542117E13,-0.23348999,0.033584595,10.002274
1.5124063577517E13,-0.21992493,0.048568726,10.002182
1.5124068612918E13,-0.21200562,0.055160522,10.005798
1.5124073648318E13,-0.21890259,-9.613037E-4,10.002609
1.5124078683718E13,-0.23840332,0.008453369,10.031555
1.5124083719119E13,-0.22338867,0.059814453,10.018799
1.5124088754519E13,-0.21430969,0.032592773,10.012604
1.512409378992E13,-0.23384094,0.01260376,9.999771
1.512409882532E13,-0.22439575,0.014282227,10.00943
1.512410386072E13,-0.23788452,0.044021606,9.98468
1.5124108896121E13,-0.22814941,0.027923584,9.986481
1.5124113931521E13,-0.21632385,0.06137085,9.99678
1.5124118966922E13,-0.20422363,0.034347534,10.071747
1.5124124002322E13,-0.24479675,0.054626465,10.022232
1.5124129037722E13,-0.19802856,0.06309509,10.026657
1.5124134073123E13,-0.24052429,0.018920898,10.007233
1.5124139108523E13,-0.20399475,0.027359009,10.0395355
1.5124144143924E13,-0.19415283,0.022445679,10.020035
1.5124149179324E13,-0.19795227,0.04559326,10.030273
1.5124154214724E13,-0.21456909,0.07501221,10.031784
1.5124159250125E13,-0.21737671,0.048355103,9.99231
1.5124164285525E13,-0.22782898,0.06651306,10.015427
1.5124169320926E13,-0.21942139,0.07563782,10.029388
1.5124174356326E13,-0.21525574,0.013015747,10.022919
1.5124179391726E13,-0.21282959,0.0054626465,10.039307
1.5124184427127E13,-0.21705627,0.025421143,10.018753
1.5124189462527E13,-0.24662781,0.042617798,10.03064
1.5124194497927E13,-0.23010254,0.05493164,10.010925
1.5124199533328E13,-0.26367188,0.027511597,9.992813
1.5124204568728E13,-0.20396423,0.045639038,9.972168
1.5124209604129E13,-0.21261597,0.029266357,10.021896
1.5124214639529E13,-0.22949219,0.05265808,9.980072
1.5124219674929E13,-0.24594116,0.01991272,10.060974
1.512422471033E13,-0.24472046,0.027282715,10.006058
1.512422974573E13,-0.21105957,0.038513184,10.028503
1.5124234781131E13,-0.24404907,0.040359497,9.958923
1.5124239816531E13,-0.25090027,0.029449463,9.976303
1.5124244851931E13,-0.25286865,0.03251648,9.972351
1.5124249887332E13,-0.24598694,0.03793335,9.984131
1.5124254922732E13,-0.20910645,0.011245728,10.040848
1.5124259958133E13,-0.23866272,0.020874023,9.984848
1.5124264993533E13,-0.23272705,0.033737183,10.033524
1.5124270028933E13,-0.20913696,0.00932312,10.010574
1.5124275064334E13,-0.2096405,0.0443573,10.041397
1.5124280099734E13,-0.24118042,0.043045044,9.999344
1.5124285135134E13,-0.23944092,0.028442383,10.057602
1.5124290170535E13,-0.22680664,0.057281494,10.041306
1.5124295205935E13,-0.20202637,0.0077819824,9.963074
1.5124300241336E13,-0.21499634,0.040039063,10.025955
1.5124305276736E13,-0.21739197,0.04298401,10.035019
1.5124310312136E13,-0.23268127,0.05253601,10.026245
1.5124315347537E13,-0.24751282,0.027557373,9.984772
1.5124320382937E13,-0.2250824,0.038604736,10.026871
1.5124325418338E13,-0.22761536,0.035186768,10.041901
1.5124330453738E13,-0.2337799,0.022949219,10.026581
1.5124335489138E13,-0.2348938,0.03175354,10.023346
1.5124340524539E13,-0.22146606,-0.0039978027,10.058884
1.5124345559939E13,-0.22377014,0.007003784,10.029892
1.512435059534E13,-0.22709656,0.02659607,10.005524
1.512435563074E13,-0.24778748,0.03201294,10.005585
1.512436066614E13,-0.23072815,0.018295288,10.020584
1.5124365701541E13,-0.21852112,0.023651123,10.013489
1.5124370736941E13,-0.20411682,0.030273438,10.023926
1.5124375772342E13,-0.20935059,0.024871826,10.009277
1.5124380807742E13,-0.21887207,0.015945435,9.991562
1.5124385843142E13,-0.21786499,0.018463135,10.013962
1.5124390878543E13,-0.22846985,0.0345459,10.016418
1.5124395913943E13,-0.23313904,0.048339844,9.99472
1.5124400949343E13,-0.21737671,0.045928955,10.011368
1.5124405984744E13,-0.23680115,0.042495728,10.030563
1.5124411020144E13,-0.2461853,0.055114746,9.999741
1.5124416055545E13,-0.2160492,0.048980713,9.958679
1.5124421090945E13,-0.19940186,0.033218384,10.008148
1.5124426126345E13,-0.17932129,0.013305664,10.038254
1.5124431161746E13,-0.19137573,0.03477478,10.008026
1.5124436197146E13,-0.20628357,0.05731201,10.000732
1.5124441232547E13,-0.21122742,0.050354004,10.009628
1.5124446267947E13,-0.2203064,0.051223755,10.026474
1.5124451303347E13,-0.22517395,0.04701233,10.011108
1.5124456338748E13,-0.24702454,0.054382324,9.987259
1.5124461374148E13,-0.2184143,0.057052612,9.9735565
1.5124466409549E13,-0.19984436,0.052444458,9.997971
1.5124471444949E13,-0.22927856,0.023712158,10.016342
1.5124476480349E13,-0.22354126,0.038589478,10.013809
1.512448151575E13,-0.25932312,0.04386902,9.991928
1.512448655115E13,-0.22650146,0.042892456,10.015091
1.5124491586551E13,-0.18666077,0.027633667,10.000153
1.5124496621951E13,-0.21611023,0.038848877,9.99263
1.5124501657351E13,-0.1940155,0.06385803,10.027405
1.5124506692752E13,-0.19102478,0.034210205,9.986221
1.5124511728152E13,-0.2258606,0.033996582,9.9700165
1.5124516763552E13,-0.18585205,0.04411316,9.977249
1.5124521798953E13,-0.21366882,0.012649536,10.067123
1.5124526834353E13,-0.23880005,0.023956299,10.008484
1.5124531869754E13,-0.25956726,0.019256592,9.990204
1.5124536905154E13,-0.23789978,0.035888672,10.052734
1.5124541940554E13,-0.23196411,0.011627197,10.003906
1.5124546975955E13,-0.20413208,0.03112793,10.023254
1.5124552011355E13,-0.20936584,0.044815063,9.998581
1.5124557046756E13,-0.18386841,0.013458252,10.048462
1.5124562082156E13,-0.24768066,0.038711548,10.035553
1.5124567117556E13,-0.20361328,0.023162842,10.0360565
1.5124572152957E13,-0.21894836,0.049453735,10.00885
1.5124577188357E13,-0.22668457,0.04837036,9.970703
1.5124582223758E13,-0.18017578,0.036621094,10.032623
1.5124587259158E13,-0.22116089,0.03640747,10.027191
1.5124592294558E13,-0.2010498,0.03387451,9.970474
1.5124597329959E13,-0.22666931,0.02229309,10.044418
1.5124602365359E13,-0.21737671,0.029953003,9.996399
1.5124607400759E13,-0.21714783,0.04864502,10.072449
1.512461243616E13,-0.21452332,0.054901123,9.989731
1.512461747156E13,-0.24594116,0.045928955,9.969528
1.5124622506961E13,-0.26239014,0.03276062,10.005951
1.5124627542361E13,-0.25228882,0.068344116,10.054535
1.5124632577761E13,-0.18405151,0.07325745,10.007065
1.5124637613162E13,-0.19387817,0.045928955,10.0047
1.5124642648562E13,-0.2530365,0.040283203,10.018402
1.5124647683963E13,-0.20506287,0.0074005127,10.020065
1.5124652719363E13,-0.20603943,0.046936035,9.963165
1.5124657754763E13,-0.23298645,0.02305603,10.015961
1.5124662790164E13,-0.23320007,0.046905518,9.990265
1.5124667825564E13,-0.21723938,0.05114746,10.035187
1.5124672860965E13,-0.23806763,0.07725525,10.036423
1.5124677896365E13,-0.2144928,0.031539917,10.04863
1.5124682931765E13,-0.19833374,0.022125244,10.017136
1.5124687967166E13,-0.19496155,0.03930664,10.018402
1.5124693002566E13,-0.20942688,0.067352295,10.011383
1.5124698037967E13,-0.21907043,0.059051514,9.999695
1.5124703073367E13,-0.22415161,0.03540039,10.033157
1.5124708108767E13,-0.2393341,0.029968262,10.009628
1.5124713144168E13,-0.24508667,0.04272461,9.994843
1.5124718179568E13,-0.2559204,0.061309814,10.016998
1.5124723214968E13,-0.23660278,0.06628418,10.029785
1.5124728250369E13,-0.22692871,0.045913696,10.046356
1.5124733285769E13,-0.20996094,0.05783081,10.018768
1.512473832117E13,-0.22465515,0.049468994,10.019348
1.512474335657E13,-0.22927856,0.04272461,9.98381
1.512474839197E13,-0.23721313,0.051483154,9.986786
1.5124753427371E13,-0.24311829,0.054260254,10.014954
1.5124758462771E13,-0.2396698,0.047668457,10.046783
1.5124763498172E13,-0.232193,0.044448853,10.026382
1.5124768533572E13,-0.21737671,0.0579834,10.024109
1.5124773568972E13,-0.22673035,0.026062012,10.016724
1.5124778604373E13,-0.23522949,0.03538513,9.987473
1.5124783639773E13,-0.21923828,0.046447754,9.999252
1.5124788675174E13,-0.22453308,0.047042847,10.004456
1.5124793710574E13,-0.21939087,0.054107666,10.016052
1.5124798745974E13,-0.22076416,0.032226563,10.029373
1.5124803781375E13,-0.23982239,0.027893066,10.015808
1.5124808816775E13,-0.22903442,0.0368042,9.980942
1.5124813852176E13,-0.20353699,0.044509888,10.010086
1.5124818887576E13,-0.22917175,0.026397705,10.041489
1.5124823922976E13,-0.23504639,0.03617859,10.032227
1.5124828958377E13,-0.2163086,0.05744934,10.00238
1.5124833993777E13,-0.22512817,0.06021118,10.030762
1.5124839029177E13,-0.22212219,0.039505005,10.057617
1.5124844064578E13,-0.22062683,0.048706055,10.01622
1.5124849099978E13,-0.22544861,0.029769897,10.033676
1.5124854135379E13,-0.21438599,0.015792847,10.005112
1.5124859170779E13,-0.25784302,0.0049743652,10.016434
1.5124864206179E13,-0.2389679,0.019973755,10.027924
1.512486924158E13,-0.20671082,0.03756714,10.046265
1.512487427698E13,-0.21339417,0.02848816,10.040176
1.5124879312381E13,-0.19517517,0.026351929,10.03064
1.5124884347781E13,-0.22720337,0.04083252,10.01683
1.5124889383181E13,-0.22433472,0.03656006,10.049835
1.5124894418582E13,-0.20811462,0.049560547,10.03862
1.5124899453982E13,-0.20547485,0.045181274,10.047607
1.5124904489383E13,-0.22749329,0.047546387,10.040466
1.5124909524783E13,-0.23165894,0.068603516,10.018265
1.5124914560183E13,-0.24700928,0.066345215,9.970657
1.5124919595584E13,-0.20497131,0.040023804,9.993271
1.5124924630984E13,-0.25164795,0.040664673,10.019424
1.5124929666384E13,-0.19085693,-0.0042266846,10.047836
1.5124934701785E13,-0.2103424,0.024032593,10.006653
1.5124939737185E13,-0.22149658,0.037979126,10.022842
1.5124944772586E13,-0.2012024,0.022018433,9.988678
1.5124949807986E13,-0.21903992,0.024337769,10.036728
1.5124954843386E13,-0.2104187,0.080581665,10.078293
1.5124959878787E13,-0.22207642,0.06742859,10.043549
1.5124964914187E13,-0.22450256,0.041107178,10.050369
1.5124969949588E13,-0.21981812,0.032318115,10.033829
1.5124974984988E13,-0.2243042,0.08842468,10.036072
1.5124980020388E13,-0.2328186,0.04975891,10.03775
1.5124985055789E13,-0.20680237,0.029525757,10.018341
1.5124990091189E13,-0.23072815,0.03353882,10.002274
1.512499512659E13,-0.2495575,0.030883789,10.058456
1.512500016199E13,-0.23535156,0.0740509,10.038788
1.512500519739E13,-0.22476196,0.045043945,10.018097
1.5125010232791E13,-0.2310791,0.023529053,10.038406
1.5125015268191E13,-0.22529602,0.050354004,9.990692
1.5125020303592E13,-0.21499634,0.047943115,10.021637
1.5125025338992E13,-0.21342468,0.04197693,10.033417
1.5125030374392E13,-0.20941162,0.026428223,10.034958
1.5125035409793E13,-0.22956848,0.0448761,10.049423
1.5125040445193E13,-0.22250366,0.02986145,10.025726
1.5125045480593E13,-0.19148254,0.06518555,10.02536
1.5125050515994E13,-0.21696472,0.04260254,10.001831
1.5125055551394E13,-0.2366333,0.02381897,9.9952545
1.5125060586795E13,-0.21824646,0.035949707,9.986755
1.5125065622195E13,-0.21188354,0.05783081,10.001862
1.5125070657595E13,-0.22836304,0.053115845,10.053528
1.5125075692996E13,-0.20436096,0.042556763,10.03981
1.5125080728396E13,-0.19741821,0.05102539,9.988251
1.5125085763797E13,-0.20454407,0.05342102,9.988876
1.5125090799197E13,-0.22229004,0.04145813,10.030975
1.5125095834597E13,-0.2442627,0.04875183,9.983215
1.5125100869998E13,-0.24423218,0.03463745,10.041718
1.5125105905398E13,-0.2394104,0.038497925,10.051712
1.5125110940799E13,-0.23735046,0.039596558,10.021042
1.5125115976199E13,-0.23690796,0.042663574,10.030029
1.5125121011599E13,-0.20579529,0.018218994,10.018051
1.5125126047E13,-0.18739319,0.046020508,10.036713
1.51251310824E13,-0.24113464,0.051513672,10.029007
1.5125136117801E13,-0.23579407,0.038131714,9.962204
1.5125141153201E13,-0.22943115,0.021652222,9.995026
1.5125146188601E13,-0.22647095,0.012512207,10.037155
1.5125151224002E13,-0.20109558,0.031402588,10.011093
1.5125156259402E13,-0.18930054,0.05845642,9.990173
1.5125161294802E13,-0.19781494,0.041275024,9.980911
1.5125166330203E13,-0.21008301,0.02116394,10.016052
1.5125171365603E13,-0.20396423,0.024505615,10.058502
1.5125176401004E13,-0.2127533,0.02583313,10.069672
1.5125181436404E13,-0.20689392,0.0039978027,10.077621
1.5125186471804E13,-0.2159729,0.020904541,10.063278
1.5125191507205E13,-0.2268982,0.04638672,10.028061
1.5125196542605E13,-0.22944641,0.058151245,10.012222
1.5125201578006E13,-0.23254395,0.068847656,10.037598
1.5125206613406E13,-0.24699402,0.0390625,10.027634
1.5125211648806E13,-0.23809814,0.040924072,10.016724
1.5125216684207E13,-0.21014404,0.030212402,10.042374
1.5125221719607E13,-0.17964172,0.044906616,10.017944
1.5125226755008E13,-0.21432495,0.033065796,10.028534
1.5125231790408E13,-0.2138977,0.054031372,10.02919
1.5125236825808E13,-0.21401978,0.04171753,10.032822
1.5125241861209E13,-0.2238617,0.0526886,10.065323
1.5125246896609E13,-0.21479797,0.04875183,10.079025
1.5125251932009E13,-0.20843506,0.023620605,10.060928
1.512525696741E13,-0.21890259,0.022872925,10.029465
1.512526200281E13,-0.23522949,0.03010559,10.021896
1.5125267038211E13,-0.23880005,0.035461426,10.010437
1.5125272073611E13,-0.20103455,0.029205322,9.989639
1.5125277109011E13,-0.21786499,0.04623413,10.020599
1.5125282144412E13,-0.22451782,0.02067566,10.051056
1.5125287179812E13,-0.21839905,0.014984131,10.085861
1.5125292215213E13,-0.23812866,0.025344849,10.07019
1.5125297250613E13,-0.25801086,0.031082153,10.018768
1.5125302286013E13,-0.24047852,0.03164673,10.004486
1.5125307321414E13,-0.24285889,0.02520752,10.043564
1.5125312356814E13,-0.21070862,0.017929077,10.052475
1.5125317392215E13,-0.19898987,0.059524536,10.046188
1.5125322427615E13,-0.2051239,0.030899048,10.032135
1.5125327463015E13,-0.20318604,0.054473877,10.072693
1.5125332498416E13,-0.20309448,0.06188965,10.031265
1.5125337533816E13,-0.18666077,0.06259155,10.0243225
1.5125342569217E13,-0.2268982,0.06021118,10.033798
1.5125347604617E13,-0.23851013,-0.0012969971,10.042419
1.5125352640017E13,-0.22250366,0.02053833,9.992538
1.5125357675418E13,-0.2407074,0.061828613,9.952957
1.5125362710818E13,-0.22955322,0.04397583,10.010971
1.5125367746218E13,-0.21754456,0.058929443,10.036667
1.5125372781619E13,-0.24932861,0.041809082,10.043976
1.5125377817019E13,-0.20091248,0.048339844,10.049805
1.512538285242E13,-0.21765137,0.027145386,10.024551
1.512538788782E13,-0.17320251,0.032684326,10.048569
1.512539292322E13,-0.24757385,0.055725098,10.068634
1.5125397958621E13,-0.2116394,0.030395508,10.049301
1.5125402994021E13,-0.23088074,0.03956604,10.013962
1.5125408029422E13,-0.21858215,0.054122925,10.048416
1.5125413064822E13,-0.18495178,0.044570923,10.012299
1.5125418100222E13,-0.20620728,0.026489258,10.033737
1.5125423135623E13,-0.23956299,0.023742676,10.047516
1.5125428171023E13,-0.2294159,0.06349182,10.063278
1.5125433206424E13,-0.18817139,0.04295349,10.041565
1.5125438241824E13,-0.21202087,0.036758423,10.034927
1.5125443277224E13,-0.2415924,0.0415802,10.037994
1.5125448312625E13,-0.24154663,0.07807922,10.051392
1.5125453348025E13,-0.24255371,0.054275513,10.036835
1.5125458383426E13,-0.20005798,0.050689697,10.022766
1.5125463418826E13,-0.19595337,0.038848877,10.028198
1.5125468454226E13,-0.21463013,0.037872314,10.038345
1.5125473489627E13,-0.23017883,0.05706787,10.022583
1.5125478525027E13,-0.20779419,0.020751953,10.005646
1.5125483560427E13,-0.21340942,0.053848267,9.97905
1.5125488595828E13,-0.2236023,0.074523926,10.025574
1.5125493631228E13,-0.1990509,0.046218872,10.054596
1.5125498666629E13,-0.1854248,0.02330017,10.024948
1.5125503702029E13,-0.1736908,0.010635376,10.036758
1.5125508737429E13,-0.18507385,0.03126526,9.992538
1.512551377283E13,-0.22676086,0.03968811,10.004425
1.512551880823E13,-0.20909119,0.03816223,10.047577
1.5125523843631E13,-0.18746948,0.03086853,10.026108
1.5125528879031E13,-0.2223053,0.016220093,10.017303
1.5125533914431E13,-0.25450134,0.03930664,9.9951935
1.5125538949832E13,-0.24258423,0.055419922,10.004623
1.5125543985232E13,-0.21487427,0.04576111,10.03949
1.5125549020633E13,-0.22276306,0.022064209,10.036804
1.5125554056033E13,-0.23641968,0.046554565,10.015152
1.5125559091433E13,-0.2434082,0.04698181,10.006729
1.5125564126834E13,-0.24403381,0.039276123,10.036697
1.5125569162234E13,-0.22496033,0.062149048,10.03862
1.5125574197634E13,-0.22250366,0.07589722,10.0455475
1.5125579233035E13,-0.23536682,0.04345703,10.027893
1.5125584268435E13,-0.20298767,0.0011291504,9.993698
1.5125589303836E13,-0.19998169,0.019042969,9.961533
1.5125594339236E13,-0.20462036,0.0340271,9.978043
1.5125599374636E13,-0.22154236,0.015579224,10.007874
1.5125604410037E13,-0.2218628,0.028335571,10.049835
1.5125609445437E13,-0.23117065,0.028442383,10.047516
1.5125614480838E13,-0.23641968,0.026245117,10.016418
1.5125619516238E13,-0.20257568,0.02331543,10.029007
1.5125624551638E13,-0.24009705,0.04385376,10.01265
1.5125629587039E13,-0.25546265,0.014694214,10.018951
1.5125634622439E13,-0.23890686,0.022781372,10.020599
1.512563965784E13,-0.23022461,0.025436401,10.0386505
1.512564469324E13,-0.20014954,0.051696777,10.008362
1.512564972864E13,-0.25074768,0.044021606,10.067505
1.5125654764041E13,-0.22703552,0.037200928,9.978638
1.5125659799441E13,-0.2310791,0.04017639,10.010422
1.5125664834842E13,-0.20333862,0.04525757,10.020187
1.5125669870242E13,-0.22567749,0.050125122,10.0048065
1.5125674905642E13,-0.2058258,0.042160034,9.99646
1.5125679941043E13,-0.200943,0.06277466,10.06488
1.5125684976443E13,-0.20733643,0.038513184,10.010178
1.5125690011843E13,-0.2285614,0.01777649,10.02179
1.5125695047244E13,-0.23617554,0.044265747,10.001755
1.5125700082644E13,-0.23641968,0.027572632,10.041748
1.5125705118045E13,-0.21089172,0.059387207,10.045654
1.5125710153445E13,-0.22207642,0.00579834,10.095383
1.5125715188845E13,-0.20552063,0.0388031,9.971771
1.5125720224246E13,-0.21221924,0.043273926,9.94722
1.5125725259646E13,-0.24313354,0.013687134,10.006195
1.5125730295047E13,-0.229599,0.04798889,10.034332
1.5125735330447E13,-0.23379517,0.038101196,9.995819
1.5125740365847E13,-0.19796753,-0.0065460205,10.031525
1.5125745401248E13,-0.2496643,0.02078247,10.003433
1.5125750436648E13,-0.20935059,0.0065307617,10.011017
1.5125755472049E13,-0.18325806,0.042892456,10.038437
1.5125760507449E13,-0.22901917,0.024139404,9.974762
1.5125765542849E13,-0.21360779,0.053756714,10.044022
1.512577057825E13,-0.23587036,0.043182373,10.028702
1.512577561365E13,-0.24705505,0.041900635,9.993866
1.5125780649051E13,-0.2490387,0.048614502,9.957626
1.5125785684451E13,-0.22018433,0.06738281,9.970718
1.5125790719851E13,-0.22669983,0.04988098,10.029739
1.5125795755252E13,-0.2131195,0.022369385,10.043106
1.5125800790652E13,-0.22555542,0.040512085,10.016586
1.5125805826052E13,-0.19895935,0.061569214,10.009323
1.5125810861453E13,-0.17834473,0.027359009,9.994293
1.5125815896853E13,-0.18997192,0.01449585,10.013535
1.5125820932254E13,-0.20890808,0.05342102,10.022186
1.5125825967654E13,-0.21524048,0.047317505,10.010254
1.5125831003054E13,-0.21173096,0.017364502,10.018173
1.5125836038455E13,-0.20779419,0.02456665,10.019379
1.5125841073855E13,-0.20075989,0.041168213,10.035492
1.5125846109256E13,-0.2160492,0.03945923,10.010895
1.5125851144656E13,-0.2059784,0.024139404,10.004974
1.5125856180056E13,-0.20594788,0.0211792,10.024521
1.5125861215457E13,-0.20812988,0.035629272,10.004913
1.5125866250857E13,-0.23857117,0.039779663,10.003418
1.5125871286258E13,-0.22373962,0.06800842,10.015427
1.5125876321658E13,-0.21858215,0.030792236,10.00621
1.5125881357058E13,-0.23464966,0.032287598,10.035446
1.5125886392459E13,-0.20640564,0.052886963,10.024597
1.5125891427859E13,-0.21821594,0.042907715,10.031342
1.5125896463259E13,-0.23016357,0.048843384,10.075424
1.512590149866E13,-0.24949646,0.03678894,10.053421
1.512590653406E13,-0.23303223,0.030273438,10.025955
1.5125911569461E13,-0.18682861,0.053741455,10.021988
1.5125916604861E13,-0.18882751,0.049819946,10.010437
1.5125921640261E13,-0.21400452,0.05039978,10.040009
1.5125926675662E13,-0.21946716,0.029327393,10.049866
1.5125931711062E13,-0.21632385,0.016540527,10.031723
1.5125936746463E13,-0.2431488,0.03262329,10.031433
1.5125941781863E13,-0.23248291,0.026550293,10.05809
1.5125946817263E13,-0.20755005,0.024810791,9.978058
1.5125951852664E13,-0.19247437,0.015594482,9.985718
1.5125956888064E13,-0.22065735,0.022094727,10.034729
1.5125961923465E13,-0.21182251,0.04071045,10.041809
1.5125966958865E13,-0.20968628,0.06526184,10.0345
1.5125971994265E13,-0.24041748,0.053085327,10.021545
1.5125977029666E13,-0.21711731,0.048583984,9.971802
1.5125982065066E13,-0.22189331,0.037017822,10.022919
1.5125987100467E13,-0.21957397,0.059158325,10.043991
1.5125992135867E13,-0.2080841,0.025405884,10.032303
1.5125997171267E13,-0.20367432,0.018707275,9.9982605
1.5126002206668E13,-0.21414185,0.05155945,9.979385
1.5126007242068E13,-0.23234558,0.062072754,10.012192
1.5126012277468E13,-0.22123718,0.034103394,10.065567
1.5126017312869E13,-0.22814941,0.028671265,10.01561
1.5126022348269E13,-0.17745972,0.025390625,10.0073395
1.512602738367E13,-0.18302917,0.040496826,10.014008
1.512603241907E13,-0.22703552,0.05369568,10.031006
1.512603745447E13,-0.2340393,0.059555054,10.007034
1.5126042489871E13,-0.1860199,0.06021118,10.009125
1.5126047525271E13,-0.20690918,0.028640747,10.0099945
1.5126052560672E13,-0.21261597,0.028549194,10.005722
1.5126057596072E13,-0.22576904,0.053359985,10.049057
1.5126062631472E13,-0.23800659,0.024368286,10.0195465
1.5126067666873E13,-0.236557,0.040115356,10.021637
1.5126072702273E13,-0.19541931,0.066223145,10.017349
1.5126077737674E13,-0.18283081,0.05230713,10.002106
1.5126082773074E13,-0.25213623,0.041290283,10.085037
1.5126087808474E13,-0.24832153,0.017364502,10.026657
1.5126092843875E13,-0.23847961,0.05770874,10.00322
1.5126097879275E13,-0.21437073,0.04837036,10.029236
1.5126102914676E13,-0.26843262,0.051345825,9.96228
1.5126107950076E13,-0.23718262,0.066970825,10.015839
1.5126112985476E13,-0.22834778,0.06654358,10.020615
1.5126118020877E13,-0.24795532,0.05088806,10.004944
1.5126123056277E13,-0.2394104,9.460449E-4,10.033646
1.5126128091677E13,-0.19958496,0.026123047,10.06604
1.5126133127078E13,-0.21214294,0.022979736,9.959305
1.5126138162478E13,-0.22633362,0.049591064,9.99025
1.5126143197879E13,-0.21458435,0.064819336,9.982208
1.5126148233279E13,-0.204422,0.04171753,9.99707
1.5126153268679E13,-0.2310791,0.060668945,9.988113
1.512615830408E13,-0.20639038,0.020523071,10.020569
1.512616333948E13,-0.21514893,0.029556274,9.981888
1.5126168374881E13,-0.23538208,0.01335144,10.009872
1.5126173410281E13,-0.22712708,0.040283203,9.99765
1.5126178445681E13,-0.22491455,0.06513977,10.048264
1.5126183481082E13,-0.23995972,0.0519104,10.042999
1.5126188516482E13,-0.23771667,0.04837036,10.057953
1.5126193551883E13,-0.24682617,0.019866943,10.027924
1.5126198587283E13,-0.25460815,0.003829956,10.03714
1.5126203622683E13,-0.23374939,0.054275513,10.050766
1.5126208658084E13,-0.23660278,0.067993164,10.027008
1.5126213693484E13,-0.20928955,0.023010254,10.03746
1.5126218728884E13,-0.20500183,0.037109375,10.067001
1.5126223764285E13,-0.22398376,0.027496338,9.979874
1.5126228799685E13,-0.19674683,0.024490356,9.997299
1.5126233835086E13,-0.21833801,0.033096313,9.996765
1.5126238870486E13,-0.21487427,0.02909851,9.981384
1.5126243905886E13,-0.20080566,0.043899536,10.01091
1.5126248941287E13,-0.20675659,0.031829834,10.01004
1.5126253976687E13,-0.19909668,0.026687622,10.024063
1.5126259012088E13,-0.18966675,0.032485962,10.017136
1.5126264047488E13,-0.22167969,0.021331787,10.025421
1.5126269082888E13,-0.20791626,0.027740479,10.016907
1.5126274118289E13,-0.22584534,0.049545288,10.025467
1.5126279153689E13,-0.21650696,0.05291748,10.020599
1.512628418909E13,-0.18765259,0.044799805,10.024155
1.512628922449E13,-0.20091248,0.047195435,10.035049
1.512629425989E13,-0.20039368,0.037109375,10.021286
1.5126299295291E13,-0.209198,0.036727905,10.013062
1.5126304330691E13,-0.22729492,0.054244995,10.03241
1.5126309366092E13,-0.21369934,0.03753662,10.02066
1.5126314401492E13,-0.21118164,0.019424438,10.030823
1.5126319436892E13,-0.20043945,0.020187378,10.029282
1.5126324472293E13,-0.2131195,0.023635864,9.999573
1.5126329507693E13,-0.22381592,0.029144287,10.021912
1.5126334543093E13,-0.20005798,0.053726196,10.027527
1.5126339578494E13,-0.22599792,0.048797607,9.997665
1.5126344613894E13,-0.22523499,0.051864624,9.989258
1.5126349649295E13,-0.18910217,0.020599365,10.002289
1.5126354684695E13,-0.21109009,0.033828735,10.021286
1.5126359720095E13,-0.25579834,0.051132202,9.971054
1.5126364755496E13,-0.26383972,0.077804565,10.030014
1.5126369790896E13,-0.21923828,0.05204773,10.007004
1.5126374826297E13,-0.21400452,0.056503296,10.011414
1.5126379861697E13,-0.23562622,0.03703308,10.015869
1.5126384897097E13,-0.22219849,0.046340942,9.944519
1.5126389932498E13,-0.2328949,0.07008362,10.008148
1.5126394967898E13,-0.26600647,0.050827026,10.018784
1.5126400003299E13,-0.20611572,0.03591919,10.0251465
1.5126405038699E13,-0.193573,0.0415802,10.043686
1.5126410074099E13,-0.23452759,5.493164E-4,9.994858
1.51264151095E13,-0.22647095,0.041915894,10.005127
1.51264201449E13,-0.23304749,0.037643433,10.046005
1.5126425180301E13,-0.24485779,0.05369568,10.037506
1.5126430215701E13,-0.1955719,0.035720825,10.025238
1.5126435251101E13,-0.23461914,9.460449E-4,10.055298
1.5126440286502E13,-0.20513916,0.059020996,10.005905
1.5126445321902E13,-0.23062134,0.021316528,9.995987
1.5126450357302E13,-0.22006226,0.052246094,10.028229
1.5126455392703E13,-0.19625854,0.024841309,10.031403
1.5126460428103E13,-0.20071411,0.088775635,10.021896
1.5126465463504E13,-0.24111938,0.025924683,9.994965
1.5126470498904E13,-0.24052429,0.019744873,10.03949
1.5126475534304E13,-0.22016907,0.020141602,9.991501
1.5126480569705E13,-0.22824097,0.03163147,9.955353
1.5126485605105E13,-0.21218872,0.06774902,10.031937
1.5126490640506E13,-0.23521423,0.0082092285,9.9496765
1.5126495675906E13,-0.19406128,0.013168335,10.049225
1.5126500711306E13,-0.21606445,0.0398407,9.986206
1.5126505746707E13,-0.2046051,0.029266357,9.976791
1.5126510782107E13,-0.20379639,0.027328491,10.035751
1.5126515817508E13,-0.24197388,0.019561768,9.978622
1.5126520852908E13,-0.25,0.042633057,10.028824
1.5126525888308E13,-0.19433594,0.029571533,10.092041
1.5126530923709E13,-0.2043457,0.06440735,10.070099
1.5126535959109E13,-0.21495056,0.028747559,10.027206
1.5126540994509E13,-0.20515442,0.025024414,10.049103
1.512654602991E13,-0.22793579,0.0443573,10.037079
1.512655106531E13,-0.20098877,0.023132324,9.9908905
1.5126556100711E13,-0.22885132,0.05114746,10.026581
1.5126561136111E13,-0.20722961,0.062576294,10.071106
1.5126566171511E13,-0.2158966,0.07575989,10.057159
1.5126571206912E13,-0.23440552,0.031280518,10.034164
1.5126576242312E13,-0.22155762,0.021987915,10.012375
1.5126581277713E13,-0.24261475,0.05091858,10.017395
1.5126586313113E13,-0.24461365,0.039886475,10.036423
1.5126591348513E13,-0.2310791,0.037963867,10.065338
1.5126596383914E13,-0.21609497,0.05305481,10.053452
1.5126601419314E13,-0.2112732,0.052703857,10.014969
1.5126606454715E13,-0.20666504,0.06430054,10.048843
1.5126611490115E13,-0.22779846,0.047439575,10.046799
1.5126616525515E13,-0.21417236,0.056930542,10.028702
1.5126621560916E13,-0.20748901,0.04196167,10.039795
1.5126626596316E13,-0.21673584,0.027694702,10.0269165
1.5126631631717E13,-0.19177246,0.03492737,10.023193
1.5126636667117E13,-0.19755554,0.041030884,9.99942
1.5126641702517E13,-0.2287445,0.041397095,9.995789
1.5126646737918E13,-0.23080444,0.03111267,10.018616
1.5126651773318E13,-0.20779419,0.02947998,10.027023
1.5126656808718E13,-0.22683716,0.040161133,10.039825
1.5126661844119E13,-0.24465942,0.03968811,10.037094
1.5126666879519E13,-0.22373962,0.03375244,10.003387
1.512667191492E13,-0.2166748,0.03541565,10.001694
1.512667695032E13,-0.21931458,0.054397583,10.027115
1.512668198572E13,-0.1880951,0.056015015,10.071091
1.5126687021121E13,-0.20013428,0.017944336,10.04892
1.5126692056521E13,-0.2108612,0.007217407,10.012695
1.5126697091922E13,-0.20852661,0.029296875,10.034302
1.5126702127322E13,-0.23318481,0.018707275,10.000778
1.5126707162722E13,-0.23175049,0.041641235,9.998184
1.5126712198123E13,-0.2157135,0.01600647,10.011551
1.5126717233523E13,-0.20280457,0.032806396,10.006729
1.5126722268924E13,-0.21331787,0.050689697,10.021896
1.5126727304324E13,-0.22828674,0.0592041,10.01712
1.5126732339724E13,-0.252594,0.020736694,9.997894
1.5126737375125E13,-0.24032593,0.029830933,10.016663
1.5126742410525E13,-0.21369934,0.026794434,10.039246
1.5126747445926E13,-0.24072266,0.009338379,10.048798
1.5126752481326E13,-0.23577881,0.07077026,10.003815
1.5126757516726E13,-0.22976685,0.04890442,10.030823
1.5126762552127E13,-0.22392273,0.006652832,10.017731
1.5126767587527E13,-0.20678711,0.026657104,10.029205
1.5126772622927E13,-0.22892761,0.022109985,10.0516815
1.5126777658328E13,-0.21591187,0.041900635,10.016937
1.5126782693728E13,-0.21875,0.029571533,10.022263
1.5126787729129E13,-0.22810364,0.05609131,10.011765
1.5126792764529E13,-0.23516846,0.058242798,9.992355
1.5126797799929E13,-0.22366333,0.05357361,9.977951
1.512680283533E13,-0.23085022,0.013900757,10.03978
1.512680787073E13,-0.22946167,0.060928345,9.997192
1.5126812906131E13,-0.20231628,0.040237427,9.979858
1.5126817941531E13,-0.20983887,0.0046081543,10.022339
1.5126822976931E13,-0.21879578,0.030853271,10.011459
1.5126828012332E13,-0.21276855,0.0340271,9.961014
1.5126833047732E13,-0.21972656,0.015090942,10.030991
1.5126838083133E13,-0.23390198,0.007904053,10.106979
1.5126843118533E13,-0.2097168,0.01991272,10.007568
1.5126848153933E13,-0.18922424,0.02720642,10.006058
1.5126853189334E13,-0.20037842,0.036132813,10.028366
1.5126858224734E13,-0.17955017,0.022598267,10.050461
1.5126863260134E13,-0.21958923,0.0011749268,10.045975
1.5126868295535E13,-0.21470642,0.09275818,9.988571
1.5126873330935E13,-0.1843872,0.029190063,9.994995
1.5126878366336E13,-0.20492554,0.06825256,10.0512085
1.5126883401736E13,-0.17967224,0.0546875,10.056854
1.5126888437136E13,-0.1884613,0.0388031,10.039627
1.5126893472537E13,-0.20985413,0.028152466,10.010208
1.5126898507937E13,-0.25032043,0.04473877,9.98381
1.5126903543338E13,-0.20510864,0.03300476,10.035873
1.5126908578738E13,-0.22714233,0.055419922,9.993286
1.5126913614138E13,-0.23603821,0.039215088,9.970261
1.5126918649539E13,-0.22712708,0.06236267,10.059891
1.5126923684939E13,-0.24531555,0.039733887,9.983246
1.512692872034E13,-0.22329712,0.05126953,10.023254
1.512693375574E13,-0.22399902,0.048034668,9.995743
1.512693879114E13,-0.20147705,0.035247803,10.018021
1.5126943826541E13,-0.2157135,0.04045105,9.992859
1.5126948861941E13,-0.21096802,0.04374695,10.008957
1.5126953897342E13,-0.20812988,0.039535522,10.018951
1.5126958932742E13,-0.20544434,0.032485962,10.037186
1.5126963968142E13,-0.22467041,0.026428223,9.98909
1.5126969003543E13,-0.22853088,0.033309937,10.0155945
1.5126974038943E13,-0.23033142,0.011459351,10.00972
1.5126979074343E13,-0.2642517,0.036575317,10.039825
1.5126984109744E13,-0.26228333,0.037017822,10.049698
1.5126989145144E13,-0.22497559,0.012893677,10.027649
1.5126994180545E13,-0.21043396,0.012145996,10.027023
1.5126999215945E13,-0.21627808,0.03704834,10.023315
1.5127004251345E13,-0.21136475,0.06124878,10.025772
1.5127009286746E13,-0.2424469,0.049743652,10.024765
1.5127014322146E13,-0.23745728,0.031433105,10.025116
1.5127019357547E13,-0.22781372,0.029388428,10.032639
1.5127024392947E13,-0.22320557,0.03529358,10.041
1.5127029428347E13,-0.1905365,0.040298462,10.033325
1.5127034463748E13,-0.18513489,0.032806396,10.02063
1.5127039499148E13,-0.21697998,0.040512085,10.037064
1.5127044534549E13,-0.22314453,0.05256653,10.032425
1.5127049569949E13,-0.21261597,0.052383423,10.020538
1.5127054605349E13,-0.22927856,0.035812378,10.0125885
1.512705964075E13,-0.25437927,0.03215027,10.00235
1.512706467615E13,-0.24151611,0.026733398,9.987061
1.5127069711551E13,-0.22601318,-0.0011138916,9.986511
1.5127074746951E13,-0.19804382,0.018310547,10.018295
1.5127079782351E13,-0.23431396,0.0054473877,10.0229645
1.5127084817752E13,-0.2499237,0.017349243,10.020309
1.5127089853152E13,-0.2540741,0.039138794,10.0159
1.5127094888552E13,-0.23008728,0.06098938,10.004456
1.5127099923953E13,-0.19989014,0.026062012,10.030716
1.5127104959353E13,-0.20211792,0.042007446,10.048447
1.5127109994754E13,-0.19499207,0.044952393,10.036484
1.5127115030154E13,-0.20010376,0.066101074,10.029648
1.5127120065554E13,-0.21316528,0.022491455,10.013947
1.5127125100955E13,-0.22276306,0.041931152,9.989685
1.5127130136355E13,-0.21144104,0.03488159,9.987564
1.5127135171756E13,-0.20596313,0.0045776367,10.028442
1.5127140207156E13,-0.22099304,0.027404785,9.990082
1.5127145242556E13,-0.20678711,0.014297485,9.9691925
1.5127150277957E13,-0.2124176,0.0027618408,9.99324
1.5127155313357E13,-0.21299744,0.016708374,10.010498
1.5127160348758E13,-0.23321533,0.03414917,10.016495
1.5127165384158E13,-0.20910645,0.027999878,10.017136
1.5127170419558E13,-0.2370758,0.035308838,10.002396
1.5127175454959E13,-0.22175598,0.047195435,10.00264
1.5127180490359E13,-0.21368408,0.048309326,9.992722
1.5127185525759E13,-0.20379639,0.043884277,10.061539
1.512719056116E13,-0.25708008,0.06602478,10.073883
1.512719559656E13,-0.24647522,0.028381348,10.016968
1.5127200631961E13,-0.22737122,0.01991272,9.993866
1.5127205667361E13,-0.21044922,0.0032806396,10.019196
1.5127210702761E13,-0.21246338,0.0052948,9.98848
1.5127215738162E13,-0.24021912,0.03640747,10.04985
1.5127220773562E13,-0.18954468,0.037200928,10.015686
1.5127225808963E13,-0.21272278,0.06187439,9.973618
1.5127230844363E13,-0.2157898,0.046966553,10.061203
1.5127235879763E13,-0.22927856,0.064071655,10.001526
1.5127240915164E13,-0.22911072,0.05029297,10.017441
1.5127245950564E13,-0.20777893,-0.004852295,10.059097
1.5127250985965E13,-0.24624634,0.03715515,10.019852
1.5127256021365E13,-0.20703125,0.07432556,9.954788
1.5127261056765E13,-0.19337463,0.020828247,10.014069
1.5127266092166E13,-0.2468872,0.014877319,9.976776
1.5127271127566E13,-0.2111969,0.028152466,9.96373
1.5127276162967E13,-0.23890686,0.019470215,9.991501
1.5127281198367E13,-0.21783447,0.02609253,10.048676
1.5127286233767E13,-0.21638489,0.016448975,9.996628
1.5127291269168E13,-0.20411682,0.035720825,9.993195
1.5127296304568E13,-0.20785522,0.049682617,10.031158
1.5127301339968E13,-0.21214294,0.04849243,10.010239
1.5127306375369E13,-0.22921753,0.05529785,9.997421
1.5127311410769E13,-0.22021484,0.040512085,10.003357
1.512731644617E13,-0.21769714,0.036087036,10.05542
1.512732148157E13,-0.22451782,0.013748169,10.050903
1.512732651697E13,-0.22451782,-0.0010375977,9.991989
1.5127331552371E13,-0.2334137,0.039733887,10.044601
1.5127336587771E13,-0.2345581,0.019943237,10.01387
1.5127341623172E13,-0.18965149,0.049728394,10.011414
1.5127346658572E13,-0.19467163,0.051345825,10.037048
1.5127351693972E13,-0.20977783,0.054092407,10.01593
1.5127356729373E13,-0.21240234,0.038131714,9.992035
1.5127361764773E13,-0.1878357,0.04536438,10.025696
1.5127366800174E13,-0.20649719,0.05307007,10.036774
1.5127371835574E13,-0.2432251,0.044891357,10.032455
1.5127376870974E13,-0.2374878,0.03718567,10.03064
1.5127381906375E13,-0.20280457,0.030212402,10.029007
1.5127386941775E13,-0.19119263,0.0340271,10.036331
1.5127391977176E13,-0.20314026,0.0438385,10.01796
1.5127397012576E13,-0.22332764,0.03640747,10.040939
1.5127402047976E13,-0.23718262,0.020370483,10.048721
1.5127407083377E13,-0.21600342,0.017150879,10.012848
1.5127412118777E13,-0.21133423,0.037872314,9.986343
1.5127417154177E13,-0.23104858,0.020355225,10.018372
1.5127422189578E13,-0.24816895,0.013381958,10.049835
1.5127427224978E13,-0.21820068,0.030044556,10.009033
1.5127432260379E13,-0.21250916,0.032608032,9.996109
1.5127437295779E13,-0.22213745,0.03741455,10.002853
1.5127442331179E13,-0.19560242,0.032318115,9.986633
1.512744736658E13,-0.19470215,0.05769348,9.982285
1.512745240198E13,-0.22761536,0.07481384,10.005386
1.5127457437381E13,-0.2096405,0.032669067,10.028183
1.5127462472781E13,-0.21446228,-2.593994E-4,10.016129
1.5127467508181E13,-0.21961975,0.027893066,10.004349
1.5127472543582E13,-0.20916748,0.05670166,9.997925
1.5127477578982E13,-0.21960449,0.045333862,9.992584
1.5127482614383E13,-0.23362732,0.03640747,10.00946
1.5127487649783E13,-0.24172974,0.029327393,10.010071
1.5127492685183E13,-0.23638916,0.019699097,10.002228
1.5127497720584E13,-0.2267456,0.04473877,10.060715
1.5127502755984E13,-0.22451782,0.039993286,10.034241
1.5127507791384E13,-0.19270325,0.03463745,10.044891
1.5127512826785E13,-0.22357178,0.020690918,10.0147705
1.5127517862185E13,-0.23207092,0.023269653,10.005234
1.5127522897586E13,-0.26367188,0.05050659,10.017242
1.5127527932986E13,-0.23321533,0.03514099,10.003281
1.5127532968386E13,-0.20631409,0.021347046,9.988129
1.5127538003787E13,-0.23791504,0.03327942,10.013275
1.5127543039187E13,-0.24385071,0.044784546,10.027908
1.5127548074588E13,-0.21136475,0.043777466,9.990402
1.5127553109988E13,-0.19480896,-0.015213013,10.021011
1.5127558145388E13,-0.19136047,0.034744263,10.0265045
1.5127563180789E13,-0.22492981,0.045532227,10.051407
1.5127568216189E13,-0.19932556,0.026824951,10.012527
1.512757325159E13,-0.18669128,0.04071045,10.002991
1.512757828699E13,-0.17007446,0.010787964,9.977158
1.512758332239E13,-0.22451782,0.050689697,10.04332
1.5127588357791E13,-0.24809265,0.022415161,10.043274
1.5127593393191E13,-0.22940063,0.0463562,10.038239
1.5127598428592E13,-0.23388672,0.064315796,10.02478
1.5127603463992E13,-0.19871521,0.05267334,10.024689
1.5127608499392E13,-0.24610901,0.04512024,9.99321
1.5127613534793E13,-0.24491882,0.03326416,10.023148
1.5127618570193E13,-0.20788574,0.02734375,10.011093
1.5127623605593E13,-0.2328186,0.05659485,10.019363
1.5127628640994E13,-0.24179077,0.0662384,9.996277
1.5127633676394E13,-0.21191406,0.042892456,10.002167
1.5127638711795E13,-0.25064087,0.029663086,9.972763
1.5127643747195E13,-0.23225403,-0.01020813,10.009796
1.5127648782595E13,-0.2171936,0.0496521,10.031357
1.5127653817996E13,-0.2454071,0.015930176,10.019516
1.5127658853396E13,-0.221344,0.039093018,10.010635
1.5127663888797E13,-0.23626709,0.015838623,9.968201
1.5127668924197E13,-0.2444458,0.032073975,10.035629
1.5127673959597E13,-0.21557617,0.022476196,10.071426
1.5127678994998E13,-0.21316528,0.03517151,10.053329
1.5127684030398E13,-0.19833374,0.026885986,10.021896
1.5127689065799E13,-0.20115662,0.031921387,10.016525
1.5127694101199E13,-0.23782349,0.028701782,10.029861
1.5127699136599E13,-0.23461914,0.036590576,10.004456
1.5127704172E13,-0.22206116,0.029342651,10.024307
1.51277092074E13,-0.22450256,0.026107788,9.982269
1.5127714242801E13,-0.22669983,0.037734985,10.006302
1.5127719278201E13,-0.24264526,0.040115356,10.031647
1.5127724313601E13,-0.22991943,0.025939941,10.011475
1.5127729349002E13,-0.21513367,0.040771484,10.01265
1.5127734384402E13,-0.22827148,0.030456543,9.988464
1.5127739419802E13,-0.22175598,0.053253174,9.970322
1.5127744455203E13,-0.22738647,0.052108765,9.993332
1.5127749490603E13,-0.22024536,0.052581787,10.01239
1.5127754526004E13,-0.2140503,0.036209106,9.982147
1.5127759561404E13,-0.23814392,0.029785156,10.015564
1.5127764596804E13,-0.22763062,0.009353638,10.015717
1.5127769632205E13,-0.18772888,0.016052246,9.988556
1.5127774667605E13,-0.20787048,0.030670166,10.005615
1.5127779703006E13,-0.24490356,0.03944397,10.033234
1.5127784738406E13,-0.21806335,0.03892517,10.023666
1.5127789773806E13,-0.21279907,0.05316162,10.033096
1.5127794809207E13,-0.22451782,0.07044983,10.03746
1.5127799844607E13,-0.21347046,0.04800415,10.003952
1.5127804880008E13,-0.22515869,0.055007935,10.035568
1.5127809915408E13,-0.22891235,0.028427124,10.024124
1.5127814950808E13,-0.23303223,0.007736206,9.992996
1.5127819986209E13,-0.23216248,0.014984131,10.015274
1.5127825021609E13,-0.25312805,0.050460815,10.020493
1.5127830057009E13,-0.2563324,0.042907715,10.015564
1.512783509241E13,-0.23731995,0.03074646,10.023682
1.512784012781E13,-0.21514893,0.033203125,10.027481
1.5127845163211E13,-0.19787598,0.014038086,10.020004
1.5127850198611E13,-0.2259674,0.034423828,10.025665
1.5127855234011E13,-0.2283783,0.023330688,10.018616
1.5127860269412E13,-0.20332336,0.041488647,10.023605
1.5127865304812E13,-0.20767212,0.033950806,10.011612
1.5127870340213E13,-0.23951721,0.016113281,9.980133
1.5127875375613E13,-0.2184143,0.04437256,9.990616
1.5127880411013E13,-0.22923279,0.034072876,9.96344
1.5127885446414E13,-0.23019409,0.038894653,9.96875
1.5127890481814E13,-0.22927856,0.037246704,9.999313
1.5127895517215E13,-0.23483276,0.0345459,10.010788
1.5127900552615E13,-0.22042847,0.040023804,10.068375
1.5127905588015E13,-0.24003601,0.034988403,10.017258
1.5127910623416E13,-0.23103333,0.056991577,9.990921
1.5127915658816E13,-0.22717285,0.017852783,10.058456
1.5127920694217E13,-0.21617126,0.023330688,10.047806
1.5127925729617E13,-0.23527527,0.0062561035,10.0457
1.5127930765017E13,-0.22337341,0.047195435,10.008209
1.5127935800418E13,-0.21765137,0.04168701,9.958008
1.5127940835818E13,-0.20143127,0.034332275,10.005371
1.5127945871218E13,-0.20533752,0.013259888,10.023773
1.5127950906619E13,-0.24754333,0.056991577,10.021942
1.5127955942019E13,-0.23291016,0.04901123,10.004272
1.512796097742E13,-0.23396301,0.043273926,10.030777
1.512796601282E13,-0.2276001,0.022460938,9.979172
1.512797104822E13,-0.2540741,0.03666687,9.983475
1.5127976083621E13,-0.2206726,0.043777466,9.97641
1.5127981119021E13,-0.2829895,0.046524048,10.015213
1.5127986154422E13,-0.2673645,0.019744873,9.986191
1.5127991189822E13,-0.22650146,0.033615112,10.007523
1.5127996225222E13,-0.2394867,0.048599243,10.089035
1.5128001260623E13,-0.18656921,0.014404297,9.990402
1.5128006296023E13,-0.2109375,0.04270935,9.987488
1.5128011331424E13,-0.23231506,0.02406311,10.006424
1.5128016366824E13,-0.1538086,0.03413391,10.066437
1.5128021402224E13,-0.23439026,0.013900757,9.992813
1.5128026437625E13,-0.2197113,0.027252197,10.040131
1.5128031473025E13,-0.19927979,0.012039185,10.051529
1.5128036508426E13,-0.21009827,0.03225708,10.022171
1.5128041543826E13,-0.23944092,0.034988403,10.008759
1.5128046579226E13,-0.24342346,0.0090789795,10.010757
1.5128051614627E13,-0.2102356,0.042495728,9.962448
1.5128056650027E13,-0.21530151,0.052627563,9.970795
1.5128061685427E13,-0.22189331,0.028274536,9.983032
1.5128066720828E13,-0.20309448,0.033050537,10.008041
1.5128071756228E13,-0.20309448,0.059524536,10.010681
1.5128076791629E13,-0.20874023,0.0340271,10.018021
1.5128081827029E13,-0.24098206,0.009307861,10.045197
1.5128086862429E13,-0.24954224,0.046020508,10.015457
1.512809189783E13,-0.1884613,0.0635376,10.034714
1.512809693323E13,-0.1715393,0.039657593,10.011505
1.5128101968631E13,-0.19415283,0.046203613,10.010101
1.5128107004031E13,-0.2255249,0.038223267,10.031418
1.5128112039431E13,-0.25090027,0.04095459,10.017517
1.5128117074832E13,-0.22688293,0.038101196,10.018539
1.5128122110232E13,-0.22047424,0.034072876,10.040451
1.5128127145633E13,-0.2353363,0.025375366,10.053375
1.5128132181033E13,-0.24758911,0.0448761,10.058945
1.5128137216433E13,-0.2503357,0.054489136,10.023621
1.5128142251834E13,-0.21392822,0.056533813,10.024185
1.5128147287234E13,-0.216568,0.04664612,9.992462
1.5128152322634E13,-0.22897339,0.020874023,9.997864
1.5128157358035E13,-0.20936584,0.006958008,10.023972
1.5128162393435E13,-0.21548462,0.017974854,10.005234
1.5128167428836E13,-0.23292542,0.05644226,10.0203705
1.5128172464236E13,-0.23130798,0.057006836,10.029694
1.5128177499636E13,-0.21095276,0.07130432,10.018204
1.5128182535037E13,-0.19544983,0.05696106,10.008041
1.5128187570437E13,-0.2039032,0.027557373,9.968369
1.5128192605838E13,-0.23686218,0.05014038,9.986359
1.5128197641238E13,-0.24957275,0.063827515,10.02066
1.5128202676638E13,-0.20336914,0.052322388,9.994324
1.5128207712039E13,-0.18649292,0.04348755,10.007965
1.5128212747439E13,-0.1822815,0.034622192,10.030075
1.512821778284E13,-0.18762207,0.03829956,9.993851
1.512822281824E13,-0.20698547,0.034851074,10.036636
1.512822785364E13,-0.21331787,0.048461914,10.031799
1.5128232889041E13,-0.216156,0.06958008,10.017136
1.5128237924441E13,-0.206604,0.051132202,10.027924
1.5128242959842E13,-0.23048401,0.03807068,10.0095215
1.5128247995242E13,-0.18469238,0.051330566,10.000992
1.5128253030642E13,-0.2119751,0.044891357,10.044434
1.5128258066043E13,-0.21368408,0.035491943,10.005234
1.5128263101443E13,-0.21806335,0.024230957,9.988998
1.5128268136843E13,-0.21380615,0.030059814,9.992554
1.5128273172244E13,-0.18037415,0.013504028,9.993332
1.5128278207644E13,-0.2074585,0.020507813,10.0385895
1.5128283243045E13,-0.20681763,0.05886841,9.985748
1.5128288278445E13,-0.16777039,0.021255493,10.072464
1.5128293313845E13,-0.22703552,0.042877197,9.987427
1.5128298349246E13,-0.26016235,0.024154663,10.015839
1.5128303384646E13,-0.22932434,0.015457153,10.032837
1.5128308420047E13,-0.21340942,0.046463013,9.986572
1.5128313455447E13,-0.20413208,0.033447266,10.024139
1.5128318490847E13,-0.23301697,0.050048828,10.042847
1.5128323526248E13,-0.26908875,0.031982422,10.005936
1.5128328561648E13,-0.18881226,0.06259155,10.007614
1.5128333597049E13,-0.20092773,0.022140503,10.047302
1.5128338632449E13,-0.21754456,0.02482605,9.984467
1.5128343667849E13,-0.22427368,0.0382843,10.011398
1.512834870325E13,-0.26023865,0.042877197,10.024689
1.512835373865E13,-0.22105408,0.032928467,9.994171
1.5128358774051E13,-0.23823547,0.052200317,10.038376
1.5128363809451E13,-0.23472595,0.069732666,10.030487
1.5128368844851E13,-0.26522827,0.062561035,9.976837
1.5128373880252E13,-0.2649231,-0.0023956299,10.0000305
1.5128378915652E13,-0.21913147,0.032913208,9.991913
1.5128383951052E13,-0.23976135,0.041168213,10.001999
1.5128388986453E13,-0.20565796,0.037750244,10.027039
1.5128394021853E13,-0.22839355,0.016464233,10.031082
1.5128399057254E13,-0.22364807,0.0043640137,10.042572
1.5128404092654E13,-0.2683258,0.02180481,10.046982
1.5128409128054E13,-0.21620178,0.026885986,10.022751
1.5128414163455E13,-0.22550964,0.05683899,10.014984
1.5128419198855E13,-0.22236633,0.065719604,10.000748
1.5128424234256E13,-0.23652649,0.04508972,9.996231
1.5128429269656E13,-0.19535828,0.02748108,10.04451
1.5128434305056E13,-0.20767212,0.049301147,10.033096
1.5128439340457E13,-0.20341492,0.05781555,10.003143
1.5128444375857E13,-0.24812317,0.027786255,9.999573
1.5128449411258E13,-0.21618652,0.01675415,10.010605
1.5128454446658E13,-0.20173645,0.009536743,10.043533
1.5128459482058E13,-0.23254395,0.032302856,10.055725
1.5128464517459E13,-0.22229004,0.033096313,10.029541
1.5128469552859E13,-0.23005676,0.006591797,10.045395
1.5128474588259E13,-0.23576355,0.020324707,10.007202
1.512847962366E13,-0.22612,0.04875183,9.986481
1.512848465906E13,-0.23800659,0.044921875,9.9921875
1.5128489694461E13,-0.21739197,0.037826538,10.047134
1.5128494729861E13,-0.22595215,0.02545166,10.0347595
1.5128499765261E13,-0.24052429,0.030685425,10.035477
1.5128504800662E13,-0.21626282,0.03904724,10.064087
1.5128509836062E13,-0.22538757,0.044403076,10.033737
1.5128514871463E13,-0.21975708,0.039978027,10.058792
1.5128519906863E13,-0.21673584,0.039260864,10.039383
1.5128524942263E13,-0.2328186,0.041534424,9.99913
1.5128529977664E13,-0.22761536,0.021743774,10.015518
1.5128535013064E13,-0.21951294,0.035751343,10.041367
1.5128540048465E13,-0.21873474,0.057434082,10.057938
1.5128545083865E13,-0.23225403,0.054260254,10.022537
1.5128550119265E13,-0.22666931,0.037750244,10.011551
1.5128555154666E13,-0.2108612,0.027877808,10.051895
1.5128560190066E13,-0.19595337,0.047729492,10.079346
1.5128565225467E13,-0.19793701,0.06628418,9.98204
1.5128570260867E13,-0.21394348,0.0635376,9.973846
1.5128575296267E13,-0.20715332,0.058624268,10.032028
1.5128580331668E13,-0.21568298,0.05783081,10.0555725
1.5128585367068E13,-0.22135925,0.029266357,10.028259
1.5128590402468E13,-0.20297241,0.021697998,10.032532
1.5128595437869E13,-0.21304321,0.024505615,10.054611
1.5128600473269E13,-0.21975708,0.040237427,10.051254
1.512860550867E13,-0.2411499,0.029891968,9.999985
1.512861054407E13,-0.24832153,0.058044434,9.997238
1.512861557947E13,-0.23936462,0.06492615,9.966995
1.5128620614871E13,-0.24017334,0.030807495,10.000122
1.5128625650271E13,-0.22209167,0.060317993,10.042938
1.5128630685672E13,-0.25428772,0.028930664,10.019394
1.5128635721072E13,-0.21530151,0.035507202,10.041962
1.5128640756472E13,-0.2520752,0.06300354,10.007095
1.5128645791873E13,-0.22065735,0.061660767,10.058197
1.5128650827273E13,-0.19395447,0.02494812,10.02803
1.5128655862674E13,-0.2416687,0.032348633,10.036621
1.5128660898074E13,-0.22486877,0.09371948,10.042831
1.5128665933474E13,-0.24375916,0.066085815,10.013062
1.5128670968875E13,-0.19697571,0.048309326,9.9895935
1.5128676004275E13,-0.25102234,0.03703308,10.081726
1.5128681039676E13,-0.20793152,0.02960205,10.016129
1.5128686075076E13,-0.21681213,0.04058838,10.053146
1.5128691110476E13,-0.22898865,0.013305664,9.976303
1.5128696145877E13,-0.20578003,0.043167114,9.936676
1.5128701181277E13,-0.2342987,0.04576111,10.044846
1.5128706216677E13,-0.23370361,0.07559204,10.042847
1.5128711252078E13,-0.21470642,0.0074005127,10.017731
1.5128716287478E13,-0.20722961,-0.0053100586,10.036392
1.5128721322879E13,-0.24887085,0.019302368,10.038025
1.5128726358279E13,-0.2883606,0.014541626,9.991562
1.5128731393679E13,-0.21730042,0.04121399,9.967636
1.512873642908E13,-0.20478821,0.04899597,10.037399
1.512874146448E13,-0.19833374,0.054397583,10.025345
1.5128746499881E13,-0.2030487,0.043273926,10.027405
1.5128751535281E13,-0.23912048,0.024505615,10.102341
1.5128756570681E13,-0.24798584,0.02722168,10.015442
1.5128761606082E13,-0.20500183,0.041641235,10.032135
1.5128766641482E13,-0.21775818,0.022750854,10.021957
1.5128771676883E13,-0.20628357,0.022918701,10.04332
1.5128776712283E13,-0.22831726,0.057434082,10.036835
1.5128781747683E13,-0.18936157,0.06010437,10.013458
1.5128786783084E13,-0.19969177,0.046722412,10.019272
1.5128791818484E13,-0.2242279,0.049072266,10.02713
1.5128796853884E13,-0.21081543,0.020950317,10.031616
1.5128801889285E13,-0.2135315,0.047576904,10.025803
1.5128806924685E13,-0.18969727,0.041107178,9.996124
1.5128811960086E13,-0.23564148,0.007888794,10.012939
1.5128816995486E13,-0.21809387,0.024505615,10.033371
1.5128822030886E13,-0.22497559,0.026443481,10.022766
1.5128827066287E13,-0.22817993,0.03981018,10.036911
1.5128832101687E13,-0.21209717,0.04951477,10.077866
1.5128837137088E13,-0.21095276,0.03878784,10.024811
1.5128842172488E13,-0.20700073,0.050735474,9.976791
1.5128847207888E13,-0.21925354,0.057418823,10.019165
1.5128852243289E13,-0.20596313,0.03640747,10.0078125
1.5128857278689E13,-0.21244812,0.03437805,10.004532
1.512886231409E13,-0.23583984,0.02746582,10.019623
1.512886734949E13,-0.2303772,0.03401184,10.008896
1.512887238489E13,-0.22625732,0.048309326,10.008438
1.5128877420291E13,-0.22157288,0.050430298,10.018051
1.5128882455691E13,-0.19770813,0.067092896,10.034988
1.5128887491092E13,-0.19847107,0.071884155,10.024857
1.5128892526492E13,-0.23776245,0.05027771,10.0490265
1.5128897561892E13,-0.23434448,0.03353882,9.982346
1.5128902597293E13,-0.21328735,0.022979736,10.010956
1.5128907632693E13,-0.24205017,0.020980835,10.033234
1.5128912668093E13,-0.2381897,0.025970459,9.990952
1.5128917703494E13,-0.21878052,0.054489136,10.002182
1.5128922738894E13,-0.23265076,0.060653687,10.044342
1.5128927774295E13,-0.21928406,0.029693604,10.02916
1.5128932809695E13,-0.22647095,0.017974854,10.036713
1.5128937845095E13,-0.21182251,0.031097412,10.018311
1.5128942880496E13,-0.20103455,0.04475403,10.05748
1.5128947915896E13,-0.22299194,0.035568237,10.060684
1.5128952951297E13,-0.21372986,0.06513977,10.038437
1.5128957986697E13,-0.21047974,0.053329468,10.041183
1.5128963022097E13,-0.23803711,0.037765503,9.999283
1.5128968057498E13,-0.23869324,0.052444458,10.008728
1.5128973092898E13,-0.23233032,0.044784546,10.05275
1.5128978128299E13,-0.18855286,0.036987305,10.039597
1.5128983163699E13,-0.20739746,0.019973755,9.991272
1.5128988199099E13,-0.21554565,0.027801514,10.002869
1.51289932345E13,-0.21688843,0.059799194,9.991226
1.51289982699E13,-0.23519897,0.03527832,10.002228
1.5129003305301E13,-0.21238708,0.012969971,10.005707
1.5129008340701E13,-0.22930908,0.038024902,9.991333
1.5129013376101E13,-0.18165588,0.049591064,10.006714
1.5129018411502E13,-0.20301819,0.038345337,10.032623
1.5129023446902E13,-0.20578003,0.07608032,9.975632
1.5129028482302E13,-0.21731567,0.032318115,10.010544
1.5129033517703E13,-0.23262024,0.019973755,9.978821
1.5129038553103E13,-0.20994568,0.06355286,10.026871
1.5129043588504E13,-0.19898987,0.02960205,10.024765
1.5129048623904E13,-0.18034363,0.07185364,10.004044
1.5129053659304E13,-0.20436096,0.035751343,10.023361
1.5129058694705E13,-0.22912598,0.03831482,9.9361725
1.5129063730105E13,-0.21287537,0.012939453,10.013596
1.5129068765506E13,-0.193573,0.05307007,9.97905
1.5129073800906E13,-0.22447205,0.043426514,10.057602
1.5129078836306E13,-0.21958923,0.03337097,10.056442
1.5129083871707E13,-0.21392822,0.008895874,10.011139
1.5129088907107E13,-0.24983215,0.03807068,10.042572
1.5129093942508E13,-0.23989868,0.044311523,10.065018
1.5129098977908E13,-0.22309875,0.02116394,10.00798
1.5129104013308E13,-0.23316956,0.015258789,10.059677
1.5129109048709E13,-0.22727966,0.062469482,9.988953
1.5129114084109E13,-0.24665833,0.037368774,10.011566
1.5129119119509E13,-0.21528625,0.011550903,10.005524
1.512912415491E13,-0.22080994,0.06903076,10.004044
1.512912919031E13,-0.23184204,0.056991577,9.975616
1.5129134225711E13,-0.25538635,0.026489258,10.021194
1.5129139261111E13,-0.2349701,0.07800293,10.06218
1.5129144296511E13,-0.20059204,0.055404663,9.964951
1.5129149331912E13,-0.2106018,0.03289795,9.99678
1.5129154367312E13,-0.21429443,0.07147217,10.041351
1.5129159402713E13,-0.22151184,0.048843384,9.987549
1.5129164438113E13,-0.21464539,0.060272217,9.974045
1.5129169473513E13,-0.18379211,0.06285095,10.021118
1.5129174508914E13,-0.21035767,0.03878784,10.036331
1.5129179544314E13,-0.23928833,0.007171631,9.989243
1.5129184579715E13,-0.21948242,0.024505615,10.037979
1.5129189615115E13,-0.23535156,0.050689697,10.053741
1.5129194650515E13,-0.19277954,0.04425049,10.0457
1.5129199685916E13,-0.20202637,0.034973145,10.043213
1.5129204721316E13,-0.20448303,0.03955078,10.015289
1.5129209756717E13,-0.18066406,0.034851074,10.006866
1.5129214792117E13,-0.2217865,0.036315918,10.072586
1.5129219827517E13,-0.24299622,0.034866333,10.064865
1.5129224862918E13,-0.22769165,0.025100708,10.0651245
1.5129229898318E13,-0.22213745,0.02722168,10.044693
1.5129234933718E13,-0.2182312,0.03135681,10.038437
1.5129239969119E13,-0.21360779,0.036239624,10.036346
1.5129245004519E13,-0.23861694,0.03488159,10.045578
1.512925003992E13,-0.2534485,0.034240723,10.041168
1.512925507532E13,-0.21516418,0.0256958,10.017242
1.512926011072E13,-0.21199036,0.023284912,9.998047
1.5129265146121E13,-0.23753357,0.02444458,9.996887
1.5129270181521E13,-0.23284912,0.037597656,10.025467
1.5129275216922E13,-0.22320557,0.0443573,10.0121
1.5129280252322E13,-0.21005249,0.037124634,10.001892
1.5129285287722E13,-0.22558594,0.03955078,9.973938
1.5129290323123E13,-0.24356079,0.0491333,9.982956
1.5129295358523E13,-0.23956299,0.049057007,10.041748
1.5129300393924E13,-0.23362732,0.04171753,10.047913
1.5129305429324E13,-0.22264099,0.050811768,10.042206
1.5129310464724E13,-0.22509766,0.050109863,10.044159
1.5129315500125E13,-0.22927856,0.04750061,10.018097
1.5129320535525E13,-0.21160889,0.035446167,9.985962
1.5129325570926E13,-0.22442627,0.047546387,9.987335
1.5129330606326E13,-0.23480225,0.038406372,9.994965
1.5129335641726E13,-0.22380066,0.019012451,10.000839
1.5129340677127E13,-0.21629333,0.023666382,10.006332
1.5129345712527E13,-0.2397461,0.039245605,10.032364
1.5129350747927E13,-0.2266388,0.07606506,9.981308
1.5129355783328E13,-0.21975708,0.059127808,10.022034
1.5129360818728E13,-0.23800659,0.033706665,9.989136
1.5129365854129E13,-0.2264862,0.027359009,10.023178
1.5129370889529E13,-0.23571777,0.024932861,9.985764
1.5129375924929E13,-0.21514893,0.020553589,10.009781
1.512938096033E13,-0.20024109,0.03173828,10.035156
1.512938599573E13,-0.21913147,0.06427002,10.019653
1.5129391031131E13,-0.23271179,0.02911377,10.014755
1.5129396066531E13,-0.21092224,0.036834717,10.025284
1.5129401101931E13,-0.21426392,0.045181274,10.060776
1.5129406137332E13,-0.20852661,0.07185364,10.04097
1.5129411172732E13,-0.20129395,0.02848816,10.014465
1.5129416208133E13,-0.2151947,0.041030884,10.00618
1.5129421243533E13,-0.18357849,0.05480957,10.066086
1.5129426278933E13,-0.17250061,0.030227661,10.037415
1.5129431314334E13,-0.1930542,0.045516968,10.03154
1.5129436349734E13,-0.25035095,0.05065918,10.057449
1.5129441385134E13,-0.20541382,0.008148193,10.026825
1.5129446420535E13,-0.19425964,0.05947876,10.053604
1.5129451455935E13,-0.21588135,0.04093933,10.001511
1.5129456491336E13,-0.24052429,0.03565979,10.03334
1.5129461526736E13,-0.18371582,0.06340027,10.025299
1.5129466562136E13,-0.21360779,0.0055236816,10.042343
1.5129471597537E13,-0.19824219,0.037734985,10.056366
1.5129476632937E13,-0.22439575,0.053634644,10.015778
1.5129481668338E13,-0.22253418,0.06588745,10.046188
1.5129486703738E13,-0.23651123,0.0016174316,10.00032
1.5129491739138E13,-0.19487,0.010192871,10.03244
1.5129496774539E13,-0.22801208,0.027053833,10.033463
1.5129501809939E13,-0.21411133,0.040420532,10.005234
1.512950684534E13,-0.24131775,0.03315735,10.003891
1.512951188074E13,-0.18830872,0.01625061,10.004089
1.512951691614E13,-0.20191956,0.05168152,10.0466
1.5129521951541E13,-0.21505737,0.04966736,10.041992
1.5129526986941E13,-0.18893433,0.03930664,10.0457
1.5129532022342E13,-0.21038818,0.062072754,10.050171
1.5129537057742E13,-0.20506287,0.026794434,10.06131
1.5129542093142E13,-0.20861816,0.02003479,10.056107
1.5129547128543E13,-0.20663452,0.019973755,10.062836
1.5129552163943E13,-0.21302795,0.014755249,10.021744
1.5129557199343E13,-0.19306946,0.033569336,9.999924
1.5129562234744E13,-0.2137146,0.023239136,9.998123
1.5129567270144E13,-0.21176147,0.034301758,10.03418
1.5129572305545E13,-0.216568,0.032699585,10.058304
1.5129577340945E13,-0.19120789,0.02809143,10.033218
1.5129582376345E13,-0.20230103,0.026779175,10.049118
1.5129587411746E13,-0.22065735,0.049240112,10.044617
1.5129592447146E13,-0.19630432,0.021713257,10.001785
1.5129597482547E13,-0.19984436,0.015609741,10.016449
1.5129602517947E13,-0.20149231,0.05444336,9.997986
1.5129607553347E13,-0.1946106,0.04006958,10.030609
1.5129612588748E13,-0.19291687,0.05114746,10.017334
1.5129617624148E13,-0.21240234,0.0395813,9.996735
1.5129622659549E13,-0.21865845,0.01260376,10.007263
1.5129627694949E13,-0.2376709,0.038513184,10.03154
1.5129632730349E13,-0.20874023,0.04975891,10.034012
1.512963776575E13,-0.18447876,0.055862427,10.003006
1.512964280115E13,-0.1965332,0.061340332,10.031708
1.5129647836551E13,-0.2006073,0.033218384,10.044601
1.5129652871951E13,-0.21170044,0.029968262,10.012421
1.5129657907351E13,-0.20967102,0.02545166,9.990097
1.5129662942752E13,-0.19970703,0.026535034,10.002609
1.5129667978152E13,-0.23135376,0.05467224,10.0295105
1.5129673013552E13,-0.2545929,0.07637024,10.003967
1.5129678048953E13,-0.23078918,0.0708313,10.0208435
1.5129683084353E13,-0.22615051,0.05619812,10.040939
1.5129688119754E13,-0.22242737,0.06607056,10.016312
1.5129693155154E13,-0.22065735,0.045043945,10.002853
1.5129698190554E13,-0.20883179,0.033309937,9.996201
1.5129703225955E13,-0.22512817,0.05265808,10.0407715
1.5129708261355E13,-0.2340393,0.06021118,10.056519
1.5129713296756E13,-0.2406311,0.04045105,10.046997
1.5129718332156E13,-0.22595215,0.04045105,10.0767975
1.5129723367556E13,-0.22891235,0.047195435,10.026382
1.5129728402957E13,-0.22607422,0.044570923,10.005753
1.5129733438357E13,-0.25680542,0.03404236,10.007141
1.5129738473758E13,-0.2110138,0.048980713,10.024963
1.5129743509158E13,-0.22567749,0.07310486,10.0108185
1.5129748544558E13,-0.22224426,0.065475464,10.058365
1.5129753579959E13,-0.2116394,0.088974,10.035004
1.5129758615359E13,-0.2164154,0.05029297,10.031097
1.5129763650759E13,-0.21737671,0.02684021,10.025162
1.512976868616E13,-0.23432922,0.066848755,10.02005
1.512977372156E13,-0.22442627,0.048110962,10.015518
1.5129778756961E13,-0.20257568,0.019622803,10.064774
1.5129783792361E13,-0.20515442,0.037338257,10.056198
1.5129788827761E13,-0.21897888,0.0342865,10.041733
1.5129793863162E13,-0.21748352,0.06591797,10.013611
1.5129798898562E13,-0.21737671,0.03717041,10.044891
1.5129803933963E13,-0.21302795,0.06253052,10.02829
1.5129808969363E13,-0.23880005,0.029266357,10.0457
1.5129814004763E13,-0.20574951,0.034072876,10.031342
1.5129819040164E13,-0.22666931,0.03883362,10.023926
1.5129824075564E13,-0.2177887,0.041259766,10.0104065
1.5129829110965E13,-0.2271576,0.042922974,10.017319
1.5129834146365E13,-0.23164368,0.031707764,9.976929
1.5129839181765E13,-0.23252869,0.05419922,9.9895935
1.5129844217166E13,-0.21456909,0.062942505,10.074982
1.5129849252566E13,-0.2102356,0.022628784,9.994354
1.5129854287967E13,-0.20761108,0.047958374,10.037445
1.5129859323367E13,-0.19032288,0.06048584,10.01178
1.5129864358767E13,-0.20147705,0.045928955,10.005524
1.5129869394168E13,-0.21931458,0.0415802,9.991684
1.5129874429568E13,-0.25737,0.02482605,10.031052
1.5129879464968E13,-0.22033691,0.0496521,9.973846
1.5129884500369E13,-0.21937561,0.055923462,9.981552
1.5129889535769E13,-0.23452759,0.048309326,10.013809
1.512989457117E13,-0.19116211,0.010604858,9.999573
1.512989960657E13,-0.20983887,0.025512695,10.027603
1.512990464197E13,-0.23841858,0.0599823,9.989563
1.5129909677371E13,-0.24050903,0.04071045,10.022812
1.5129914712771E13,-0.20768738,0.03718567,10.01709
1.5129919748172E13,-0.2474823,0.025421143,10.024475
1.5129924783572E13,-0.24578857,0.04220581,10.001526
1.5129929818972E13,-0.20715332,0.014862061,9.97496
1.5129934854373E13,-0.18466187,0.03895569,10.006271
1.5129939889773E13,-0.16642761,0.048202515,10.036545
1.5129944925174E13,-0.21273804,0.03327942,10.013489
1.5129949960574E13,-0.24656677,0.043182373,10.023605
1.5129954995974E13,-0.21939087,0.008926392,10.038895
1.5129960031375E13,-0.19805908,0.0320282,10.018402
1.5129965066775E13,-0.20030212,0.036026,10.047287
1.5129970102176E13,-0.19328308,0.043182373,10.020859
1.5129975137576E13,-0.23294067,0.030029297,10.036224
1.5129980172976E13,-0.23854065,0.03501892,10.061279
1.5129985208377E13,-0.23268127,0.03944397,10.029739
1.5129990243777E13,-0.20059204,0.028549194,9.997757
1.5129995279177E13,-0.16738892,0.020874023,10.00148
1.5130000314578E13,-0.18310547,0.02319336,10.042297
1.5130005349978E13,-0.18354797,0.018600464,10.056671
1.5130010385379E13,-0.19108582,0.013824463,10.013855
1.5130015420779E13,-0.20535278,0.017608643,9.998993
1.5130020456179E13,-0.21684265,0.02418518,10.05426
1.513002549158E13,-0.22654724,0.011138916,10.05542
1.513003052698E13,-0.22032166,-0.0011291504,10.015289
1.5130035562381E13,-0.22746277,0.036254883,9.998596
1.5130040597781E13,-0.24087524,0.04345703,10.005951
1.5130045633181E13,-0.23881531,0.014984131,10.022858
1.5130050668582E13,-0.22331238,0.02998352,10.020691
1.5130055703982E13,-0.24707031,0.026351929,10.011642
1.5130060739383E13,-0.22122192,0.012588501,10.0195465
1.5130065774783E13,-0.21713257,0.0069274902,10.045624
1.5130070810183E13,-0.22607422,0.011672974,10.033447
1.5130075845584E13,-0.2236023,0.028182983,9.983948
1.5130080880984E13,-0.18565369,0.020111084,10.026245
1.5130085916384E13,-0.22836304,0.025512695,10.004181
1.5130090951785E13,-0.23757935,0.041809082,10.0208435
1.5130095987185E13,-0.2212677,0.034973145,10.018646
1.5130101022586E13,-0.18818665,0.028198242,10.011322
1.5130106057986E13,-0.23950195,0.052642822,9.982391
1.5130111093386E13,-0.21385193,0.016204834,9.995346
1.5130116128787E13,-0.22459412,0.056259155,10.010254
1.5130121164187E13,-0.21537781,0.041519165,10.038208
1.5130126199588E13,-0.21261597,0.03437805,10.015106
1.5130131234988E13,-0.19548035,0.043533325,10.008102
1.5130136270388E13,-0.19944763,0.02116394,10.007614
1.5130141305789E13,-0.21966553,0.03630066,9.990784
1.5130146341189E13,-0.20283508,0.021621704,10.016464
1.513015137659E13,-0.23553467,0.043670654,9.997757
1.513015641199E13,-0.21455383,0.02166748,10.035416
1.513016144739E13,-0.21678162,0.0488739,9.996948
1.5130166482791E13,-0.24008179,0.05987549,10.084
1.5130171518191E13,-0.23657227,0.041748047,10.003189
1.5130176553592E13,-0.23175049,0.03414917,9.95842
1.5130181588992E13,-0.21746826,0.04348755,9.993118
1.5130186624392E13,-0.21279907,0.03401184,10.028885
1.5130191659793E13,-0.24197388,0.0317688,10.001953
1.5130196695193E13,-0.19140625,0.04336548,10.006332
1.5130201730593E13,-0.26008606,0.038116455,9.973846
1.5130206765994E13,-0.2569275,0.017211914,10.032196
1.5130211801394E13,-0.275589,0.016555786,10.010605
1.5130216836795E13,-0.22833252,0.036209106,10.043137
1.5130221872195E13,-0.21807861,0.034469604,9.985184
1.5130226907595E13,-0.23745728,0.048461914,9.960327
1.5130231942996E13,-0.19119263,0.028884888,10.051315
1.5130236978396E13,-0.19657898,0.009536743,10.037918
1.5130242013797E13,-0.22964478,0.0138549805,10.015869
1.5130247049197E13,-0.2305603,0.05580139,10.002335
1.5130252084597E13,-0.22451782,0.035690308,10.04126
1.5130257119998E13,-0.22825623,0.06454468,10.056763
1.5130262155398E13,-0.2395935,0.04512024,10.040756
1.5130267190799E13,-0.2271576,0.026016235,10.059769
1.5130272226199E13,-0.23309326,0.057754517,10.042679
1.5130277261599E13,-0.22813416,0.0340271,10.06427
1.5130282297E13,-0.23405457,0.039733887,10.0347595
1.51302873324E13,-0.18940735,0.059951782,10.012299
1.5130292367801E13,-0.2228241,0.04208374,10.006378
1.5130297403201E13,-0.21951294,0.010681152,10.030701
1.5130302438601E13,-0.20187378,0.005935669,10.014633
1.5130307474002E13,-0.20561218,0.031967163,10.004913
1.5130312509402E13,-0.23947144,0.055404663,9.9767
1.5130317544802E13,-0.21658325,0.033340454,10.008911
1.5130322580203E13,-0.19883728,0.039901733,10.01416
1.5130327615603E13,-0.21150208,0.055038452,9.982788
1.5130332651004E13,-0.2202301,0.07067871,10.019516
1.5130337686404E13,-0.22724915,0.06304932,10.014999
1.5130342721804E13,-0.23344421,0.050079346,10.020065
1.5130347757205E13,-0.21775818,0.041656494,10.028503
1.5130352792605E13,-0.20210266,0.034347534,10.037964
1.5130357828006E13,-0.21482849,0.042434692,10.063995
1.5130362863406E13,-0.20826721,0.0206604,10.043945
1.5130367898806E13,-0.2124939,0.002670288,10.038834
1.5130372934207E13,-0.2149353,0.025497437,10.015152
1.5130377969607E13,-0.2191925,0.042236328,9.99025
1.5130383005008E13,-0.2021637,0.0463562,9.993866
1.5130388040408E13,-0.2035675,0.041366577,10.035812
1.5130393075808E13,-0.21705627,0.030303955,10.047134
1.5130398111209E13,-0.21054077,0.045700073,10.010513
1.5130403146609E13,-0.20584106,0.04711914,10.017487
1.5130408182009E13,-0.22383118,0.044891357,10.000259
1.513041321741E13,-0.22955322,0.0099487305,9.973236
1.513041825281E13,-0.22512817,-0.0010681152,10.002304
1.5130423288211E13,-0.1965332,0.03366089,10.015823
1.5130428323611E13,-0.20669556,0.029556274,10.036896
1.5130433359011E13,-0.22756958,0.023452759,10.045227
1.5130438394412E13,-0.21794128,0.04309082,10.039322
1.5130443429812E13,-0.22087097,0.042434692,10.033615
1.5130448465213E13,-0.22116089,0.06564331,10.051575
1.5130453500613E13,-0.22659302,0.03756714,10.042908
1.5130458536013E13,-0.25195313,0.03668213,10.020004
1.5130463571414E13,-0.23147583,0.05392456,10.005463
1.5130468606814E13,-0.24693298,0.030654907,9.999237
1.5130473642215E13,-0.22050476,0.068115234,10.016495
1.5130478677615E13,-0.23454285,0.038635254,9.984512
1.5130483713015E13,-0.2335968,0.04396057,10.002777
1.5130488748416E13,-0.22628784,0.026763916,10.017181
1.5130493783816E13,-0.19354248,0.041030884,10.060181
1.5130498819217E13,-0.2324524,0.063934326,10.003494
1.5130503854617E13,-0.23718262,0.023223877,10.029053
1.5130508890017E13,-0.2220459,0.045806885,10.007416
1.5130513925418E13,-0.21766663,0.05908203,10.021774
1.5130518960818E13,-0.20750427,0.03453064,10.034164
1.5130523996218E13,-0.186203,0.035690308,10.04689
1.5130529031619E13,-0.19282532,0.04296875,9.967041
1.5130534067019E13,-0.22688293,0.043548584,10.035492
1.513053910242E13,-0.21118164,-0.003982544,10.08847
1.513054413782E13,-0.21942139,0.046279907,10.026733
1.513054917322E13,-0.20246887,0.0569458,10.043747
1.5130554208621E13,-0.21716309,0.048431396,9.956451
1.5130559244021E13,-0.24594116,0.043548584,9.995712
1.5130564279422E13,-0.22192383,0.066726685,10.050293
1.5130569314822E13,-0.21031189,0.033218384,10.041382
1.5130574350222E13,-0.21386719,0.0082092285,10.054092
1.5130579385623E13,-0.24304199,0.017196655,10.027161
1.5130584421023E13,-0.22239685,0.053863525,10.023651
1.5130589456424E13,-0.2519989,0.035446167,10.047546
1.5130594491824E13,-0.21430969,0.04647827,10.058716
1.5130599527224E13,-0.20759583,0.008361816,9.982758
1.5130604562625E13,-0.20574951,0.01612854,9.994705
1.5130609598025E13,-0.20785522,0.043701172,10.006348
1.5130614633426E13,-0.20713806,0.04008484,10.023727
1.5130619668826E13,-0.20191956,0.010986328,10.035385
1.5130624704226E13,-0.19935608,0.030273438,10.033585
1.5130629739627E13,-0.21182251,0.046829224,9.998138
1.5130634775027E13,-0.20248413,0.043319702,10.032593
1.5130639810427E13,-0.21975708,0.016616821,10.010178
1.5130644845828E13,-0.21865845,0.03378296,10.032608
1.5130649881228E13,-0.22259521,0.017944336,10.056488
1.5130654916629E13,-0.2428894,0.02218628,10.032822
1.5130659952029E13,-0.23339844,0.025375366,9.998947
1.5130664987429E13,-0.22149658,0.01625061,10.015884
1.513067002283E13,-0.21014404,0.02545166,10.045425
1.513067505823E13,-0.2507019,0.04055786,10.0611725
1.5130680093631E13,-0.21755981,0.04408264,10.050415
1.5130685129031E13,-0.2144165,0.051223755,10.026947
1.5130690164431E13,-0.23388672,0.03466797,9.998169
1.5130695199832E13,-0.2203064,0.043273926,10.021225
1.5130700235232E13,-0.21098328,0.024505615,9.990067
1.5130705270633E13,-0.21755981,0.033843994,10.030319
1.5130710306033E13,-0.21377563,0.037628174,10.048172
1.5130715341433E13,-0.22424316,0.022125244,10.050186
1.5130720376834E13,-0.20805359,0.020050049,10.031921
1.5130725412234E13,-0.20191956,0.024307251,10.027069
1.5130730447634E13,-0.21824646,0.03501892,10.043945
1.5130735483035E13,-0.21910095,0.03074646,10.02771
1.5130740518435E13,-0.21598816,0.05003357,10.013367
1.5130745553836E13,-0.24368286,0.051712036,10.011124
1.5130750589236E13,-0.23316956,0.021972656,10.023788
1.5130755624636E13,-0.2124939,0.0395813,10.031677
1.5130760660037E13,-0.21975708,0.063797,10.024384
1.5130765695437E13,-0.21842957,0.05168152,10.010162
1.5130770730838E13,-0.21466064,0.03843689,10.009644
1.5130775766238E13,-0.21124268,0.0627594,10.002487
1.5130780801638E13,-0.20741272,0.06604004,9.974411
1.5130785837039E13,-0.22702026,0.028518677,9.997086
1.5130790872439E13,-0.22380066,0.014892578,10.040268
1.513079590784E13,-0.22390747,0.042510986,10.045258
1.513080094324E13,-0.2394104,0.06008911,10.016174
1.513080597864E13,-0.23110962,0.04699707,10.020004
1.5130811014041E13,-0.2101593,0.03718567,10.03064
1.5130816049441E13,-0.20005798,0.042495728,10.031418
1.5130821084842E13,-0.22747803,0.013549805,10.012009
1.5130826120242E13,-0.23265076,0.008560181,10.019943
1.5130831155642E13,-0.23275757,0.035186768,9.990173
1.5130836191043E13,-0.18634033,0.050613403,10.019089
1.5130841226443E13,-0.19688416,0.044021606,10.0229645
1.5130846261843E13,-0.18148804,0.03944397,10.024658
1.5130851297244E13,-0.21055603,0.040603638,10.055923
1.5130856332644E13,-0.22973633,0.044952393,10.000198
1.5130861368045E13,-0.24523926,0.042037964,10.043945
1.5130866403445E13,-0.22270203,-0.006149292,10.061554
1.5130871438845E13,-0.18737793,0.018035889,10.054367
1.5130876474246E13,-0.18545532,0.052856445,10.045288
1.5130881509646E13,-0.20895386,0.058151245,10.028992
1.5130886545047E13,-0.17687988,0.04310608,10.0182495
1.5130891580447E13,-0.2467804,0.047561646,10.076843
1.5130896615847E13,-0.22088623,0.07423401,10.027603
1.5130901651248E13,-0.23052979,0.017715454,10.006577
1.5130906686648E13,-0.23786926,0.020858765,10.04866
1.5130911722049E13,-0.22077942,0.015350342,10.0327
1.5130916757449E13,-0.22894287,0.019561768,10.056641
1.5130921792849E13,-0.17123413,0.061538696,10.006531
1.513092682825E13,-0.21679688,0.036727905,10.007599
1.513093186365E13,-0.20309448,0.03878784,9.969528
1.5130936899051E13,-0.2300415,0.023071289,10.027893
1.5130941934451E13,-0.17779541,0.07020569,9.98143
1.5130946969851E13,-0.2053833,0.01133728,9.981232
1.5130952005252E13,-0.20547485,0.03744507,9.980087
1.5130957040652E13,-0.24578857,0.05479431,10.036316
1.5130962076052E13,-0.24232483,0.049987793,10.007721
1.5130967111453E13,-0.22819519,0.10043335,10.038132
1.5130972146853E13,-0.2861786,0.0819397,10.018723
1.5130977182254E13,-0.24536133,0.026000977,10.029678
1.5130982217654E13,-0.24215698,0.022323608,10.012299
1.5130987253054E13,-0.24467468,0.03768921,9.989838
1.5130992288455E13,-0.22598267,0.031280518,10.03035
1.5130997323855E13,-0.23226929,0.030014038,10.001404
1.5131002359256E13,-0.22190857,0.040023804,10.022263
1.5131007394656E13,-0.23684692,0.053512573,10.000565
1.5131012430056E13,-0.21209717,0.04336548,10.031082
1.5131017465457E13,-0.18623352,0.03727722,10.038025
1.51310224914E13,-0.20500183,0.046676636,10.036728
1.5131027526801E13,-0.24121094,0.035491943,10.031479
1.5131032562201E13,-0.23937988,0.013885498,10.007996
1.5131037597601E13,-0.23725891,0.024795532,10.020554
1.5131042633002E13,-0.17929077,0.036392212,9.9999695
1.5131047668402E13,-0.19866943,0.021224976,9.985336
1.5131052703802E13,-0.22749329,0.036026,10.025803
1.5131057739203E13,-0.1973114,0.047668457,10.016037
1.5131062774603E13,-0.21154785,0.023529053,10.061554
1.5131067810004E13,-0.22819519,0.04396057,10.024704
1.5131072845404E13,-0.22486877,0.026443481,10.006271
1.5131077880804E13,-0.20779419,0.03451538,9.999786
1.5131082916205E13,-0.20057678,0.06402588,10.021637
1.5131087951605E13,-0.24090576,0.033798218,10.031708
1.5131092987006E13,-0.23953247,0.024124146,10.036179
1.5131098022406E13,-0.23397827,0.039779663,10.025528
1.5131103057806E13,-0.22761536,0.041305542,10.026627
1.5131108093207E13,-0.23182678,0.04878235,10.025558
1.5131113128607E13,-0.23139954,0.040100098,10.025375
1.5131118164008E13,-0.21543884,0.03768921,10.013245
1.5131123199408E13,-0.1923523,0.043762207,9.9953
1.5131128234808E13,-0.19999695,0.035614014,10.017014
1.5131133270209E13,-0.20657349,0.036254883,10.04689
1.5131138305609E13,-0.21336365,0.043045044,10.044037
1.513114334101E13,-0.21725464,0.050048828,9.990738
1.513114837641E13,-0.21369934,0.039382935,9.967377
1.513115341181E13,-0.22253418,0.029205322,10.000702
1.5131158447211E13,-0.21772766,0.047027588,10.013229
1.5131163482611E13,-0.2294159,0.056915283,10.022369
1.5131168518011E13,-0.22012329,0.029251099,10.063019
1.5131173553412E13,-0.22642517,0.048294067,10.041428
1.5131178588812E13,-0.23277283,0.06758118,10.008728
1.5131183624213E13,-0.21322632,0.034439087,10.026123
1.5131188659613E13,-0.17114258,0.0050201416,10.026367
1.5131193695013E13,-0.188797,0.0016479492,10.008591
1.5131198730414E13,-0.20991516,0.03375244,9.980698
1.5131203765814E13,-0.20619202,0.06201172,10.031464
1.5131208801215E13,-0.19624329,0.05430603,10.0342865
1.5131213836615E13,-0.18640137,0.064468384,10.020691
1.5131218872015E13,-0.19140625,0.031158447,10.039734
1.5131223907416E13,-0.193573,0.053390503,10.098053
1.5131228942816E13,-0.18978882,0.0473938,9.981369
1.5131233978217E13,-0.22831726,0.05430603,9.966064
1.5131239013617E13,-0.23150635,0.046203613,10.029999
1.5131244049017E13,-0.18727112,0.021530151,10.023315
1.5131249084418E13,-0.21786499,0.03765869,10.021561
1.5131254119818E13,-0.24511719,0.028808594,10.011612
1.5131259155219E13,-0.20239258,0.045669556,10.032974
1.5131264190619E13,-0.18412781,0.042388916,10.038162
1.5131269226019E13,-0.22666931,0.009033203,9.987152
1.513127426142E13,-0.23823547,0.04269409,10.0121
1.513127929682E13,-0.20994568,0.017059326,9.979248
1.513128433222E13,-0.19662476,0.032974243,10.044144
1.5131289367621E13,-0.17318726,0.020355225,10.020752
1.5131294403021E13,-0.20654297,0.019744873,9.991592
1.5131299438422E13,-0.26426697,0.066711426,9.939255
1.5131304473822E13,-0.23641968,0.043548584,9.990952
1.5131309509222E13,-0.21276855,0.040924072,10.04538
1.5131314544623E13,-0.22451782,0.022125244,10.019699
1.5131319580023E13,-0.22541809,0.021865845,10.026993
1.5131324615424E13,-0.2501068,0.015136719,10.035965
1.5131329650824E13,-0.23165894,0.047973633,9.999512
1.5131334686224E13,-0.22825623,0.041259766,9.987152
1.5131339721625E13,-0.18948364,0.016525269,10.002731
1.5131344757025E13,-0.19833374,0.032958984,10.0425415
1.5131349792426E13,-0.21568298,0.038711548,9.999237
1.5131354827826E13,-0.20326233,0.004180908,10.0065155
1.5131359863226E13,-0.21315002,0.020828247,9.995712
1.5131364898627E13,-0.2519226,0.03161621,10.018753
1.5131369934027E13,-0.22981262,0.04824829,10.004562
1.5131374969427E13,-0.21658325,0.024932861,10.020981
1.5131380004828E13,-0.23773193,0.06555176,10.060745
1.5131385040228E13,-0.2137146,0.054534912,10.062958
1.5131390075629E13,-0.21754456,0.031967163,10.008255
1.5131395111029E13,-0.21316528,0.025527954,10.029129
1.5131400146429E13,-0.21723938,0.053131104,10.027023
1.513140518183E13,-0.21150208,0.052444458,10.048798
1.513141021723E13,-0.2334137,0.025985718,10.009872
1.5131415252631E13,-0.2338562,0.010757446,10.016525
1.5131420288031E13,-0.23970032,0.021530151,10.051941
1.5131425323431E13,-0.2270813,0.049728394,10.008026
1.5131430358832E13,-0.21603394,0.05671692,9.996674
1.5131435394232E13,-0.22996521,0.045715332,10.0516815
1.5131440429633E13,-0.23016357,0.055236816,10.043396
1.5131445465033E13,-0.23721313,0.037200928,10.025085
1.5131450500433E13,-0.23786926,0.033981323,9.994156
1.5131455535834E13,-0.23641968,0.03727722,10.024902
1.5131460571234E13,-0.21426392,0.03970337,10.008987
1.5131465606635E13,-0.2089386,0.039276123,9.9926605
1.5131470642035E13,-0.22628784,0.03640747,10.023499
1.5131475677435E13,-0.20648193,0.044067383,10.004059
1.5131480712836E13,-0.21014404,0.014556885,9.9843445
1.5131485748236E13,-0.20561218,0.018127441,10.018005
1.5131490783636E13,-0.2163086,0.038772583,10.030197
1.5131495819037E13,-0.22546387,0.030273438,10.008331
1.5131500854437E13,-0.22206116,0.030349731,10.00621
1.5131505889838E13,-0.23776245,0.025543213,9.999023
1.5131510925238E13,-0.23902893,0.036239624,10.001648
1.5131515960638E13,-0.21943665,0.048980713,9.992355
1.5131520996039E13,-0.21717834,0.07922363,9.95665
1.5131526031439E13,-0.22927856,0.064575195,10.016998
1.513153106684E13,-0.22322083,0.041488647,10.032288
1.513153610224E13,-0.20370483,0.057662964,10.007614
1.513154113764E13,-0.224823,0.05822754,10.044067
1.5131546173041E13,-0.24430847,0.03904724,10.052292
1.5131551208441E13,-0.22525024,0.04437256,10.034561
1.5131556243842E13,-0.21176147,0.03933716,10.029037
1.5131561279242E13,-0.21792603,0.055541992,10.022903
1.5131566314642E13,-0.22868347,0.04119873,9.9639435
1.5131571350043E13,-0.22132874,0.024093628,9.988571
1.5131576385443E13,-0.22615051,0.025619507,10.063705
1.5131581420844E13,-0.22038269,0.039352417,10.001846
1.5131586456244E13,-0.21920776,0.04536438,10.012558
1.5131591491644E13,-0.2575531,0.04248047,10.027725
1.5131596527045E13,-0.21322632,0.04852295,10.006958
1.5131601562445E13,-0.2227478,0.03729248,10.034912
1.5131606597845E13,-0.19215393,0.03793335,10.015961
1.5131611633246E13,-0.21980286,0.07055664,10.008011
1.5131616668646E13,-0.20877075,0.05067444,10.013672
1.5131621704047E13,-0.22642517,0.047821045,9.999527
1.5131626739447E13,-0.23373413,0.025604248,10.012222
1.5131631774847E13,-0.20863342,0.0178833,10.035934
1.5131636810248E13,-0.23553467,0.0066223145,10.04715
1.5131641845648E13,-0.2083435,-0.007598877,10.006744
1.5131646881049E13,-0.19882202,0.033325195,10.002853
1.5131651916449E13,-0.23374939,0.034317017,10.002853
1.5131656951849E13,-0.20249939,0.009063721,10.032364
1.513166198725E13,-0.22380066,0.012451172,9.999191
1.513166702265E13,-0.24803162,0.08078003,9.96283
1.5131672058051E13,-0.23880005,0.06259155,10.0099945
1.5131677093451E13,-0.24256897,0.031555176,10.031158
1.5131682128851E13,-0.15951538,0.02482605,10.008713
1.5131687164252E13,-0.2224884,0.09750366,9.995483
1.5131692199652E13,-0.17875671,0.024902344,10.042282
1.5131697235052E13,-0.20959473,-0.007858276,10.023315
1.5131702270453E13,-0.20318604,0.005645752,10.010757
1.5131707305853E13,-0.22840881,0.009063721,10.02034
1.5131712341254E13,-0.19412231,0.022125244,10.028259
1.5131717376654E13,-0.21530151,0.022644043,10.005234
1.5131722412054E13,-0.25193787,0.02784729,9.995285
1.5131727447455E13,-0.2264862,0.037872314,9.953186
1.5131732482855E13,-0.2102356,0.053329468,10.073685
1.5131737518256E13,-0.21809387,0.0181427,10.040222
1.5131742553656E13,-0.25471497,0.02268982,10.013809
1.5131747589056E13,-0.2335968,0.028320313,10.011749
1.5131752624457E13,-0.24118042,0.03300476,9.971085
1.5131757659857E13,-0.23846436,0.035232544,10.003952
1.5131762695258E13,-0.22987366,0.062454224,10.012299
1.5131767730658E13,-0.22595215,0.08000183,10.031235
1.5131772766058E13,-0.21141052,0.0602417,10.050781
1.5131777801459E13,-0.2142334,0.031967163,10.057846
1.5131782836859E13,-0.19526672,0.034744263,10.019745
1.513178787226E13,-0.22514343,0.058273315,10.015228
1.513179290766E13,-0.24082947,0.055786133,10.0412445
1.513179794306E13,-0.21221924,0.028381348,10.009659
1.5131802978461E13,-0.2211914,0.021636963,9.993332
1.5131808013861E13,-0.2026062,0.007949829,10.006485
1.5131813049261E13,-0.20625305,0.035369873,10.021805
1.5131818084662E13,-0.23251343,0.049331665,10.045517
1.5131823120062E13,-0.23440552,0.03869629,10.06749
1.5131828155463E13,-0.22172546,0.041900635,9.998993
1.5131833190863E13,-0.22198486,0.058746338,9.991089
1.5131838226263E13,-0.24101257,0.05593872,10.039703
1.5131843261664E13,-0.25657654,0.050689697,10.035217
1.5131848297064E13,-0.24189758,0.04043579,10.004517
1.5131853332465E13,-0.22920227,0.025756836,10.007355
1.5131858367865E13,-0.21731567,0.024353027,10.036407
1.5131863403265E13,-0.2063446,0.026885986,10.042572
1.5131868438666E13,-0.21626282,0.014251709,10.031418
1.5131873474066E13,-0.21609497,0.018585205,10.022369
1.5131878509467E13,-0.23892212,0.034301758,10.025391
1.5131883544867E13,-0.24562073,0.030960083,10.007996
1.5131888580267E13,-0.2428894,0.02558899,10.007965
1.5131893615668E13,-0.22540283,0.042037964,10.002701
1.5131898651068E13,-0.21078491,0.056900024,10.013947
1.5131903686469E13,-0.22305298,0.0473938,10.0403595
1.5131908721869E13,-0.20802307,0.025970459,10.027481
1.5131913757269E13,-0.22227478,0.023544312,9.995468
1.513191879267E13,-0.21879578,0.029815674,10.011734
1.513192382807E13,-0.22341919,0.06741333,10.010376
1.513192886347E13,-0.22341919,0.07318115,10.035141
1.5131933898871E13,-0.25,0.058944702,9.988327
1.5131938934271E13,-0.23869324,0.04348755,10.00853
1.5131943969672E13,-0.20669556,0.04399109,10.044037
1.5131949005072E13,-0.1884613,0.017944336,10.032364
1.5131954040472E13,-0.19815063,0.070632935,10.022522
1.5131959075873E13,-0.21598816,0.07144165,10.036621
1.5131964111273E13,-0.23472595,0.06121826,10.0147705
1.5131969146674E13,-0.23501587,0.03363037,10.015213
1.5131974182074E13,-0.19718933,0.067611694,10.044296
1.5131979217474E13,-0.21269226,0.032791138,10.090866
1.5131984252875E13,-0.21385193,0.047317505,9.980667
1.5131989288275E13,-0.230896,0.026672363,9.987732
1.5131994323676E13,-0.22575378,0.04283142,10.011978
1.5131999359076E13,-0.23713684,0.058532715,9.989532
1.5132004394476E13,-0.22601318,0.023956299,9.996857
1.5132009429877E13,-0.21446228,0.031814575,10.044403
1.5132014465277E13,-0.22567749,0.07318115,10.015869
1.5132019500677E13,-0.18304443,0.028625488,10.045273
1.5132024536078E13,-0.18833923,0.051635742,9.998337
1.5132029571478E13,-0.21403503,0.07598877,10.023239
1.5132034606879E13,-0.25447083,0.037399292,10.019638
1.5132039642279E13,-0.24890137,0.027633667,10.032669
1.5132044677679E13,-0.1914978,0.029327393,10.01947
1.513204971308E13,-0.23849487,0.041290283,10.01123
1.513205474848E13,-0.22346497,0.048736572,10.075195
1.5132059783881E13,-0.26213074,0.06309509,10.027924
1.5132064819281E13,-0.19772339,0.072891235,10.001877
1.5132069854681E13,-0.18650818,0.04371643,9.9839325
1.5132074890082E13,-0.23716736,0.047958374,10.042374
1.5132079925482E13,-0.21836853,0.06599426,10.049667
1.5132084960883E13,-0.20626831,0.030853271,9.984299
1.5132089996283E13,-0.21409607,0.026855469,10.04776
1.5132095031683E13,-0.22358704,0.03981018,10.0564575
1.5132100067084E13,-0.21986389,0.01802063,10.016388
1.5132105102484E13,-0.2534485,0.05581665,10.015503
1.5132110137885E13,-0.27630615,0.06930542,10.056931
1.5132115173285E13,-0.25175476,0.06010437,10.056152
1.5132120208685E13,-0.21324158,0.032165527,10.009827
1.5132125244086E13,-0.23773193,0.035751343,9.9865265
1.5132130279486E13,-0.21382141,0.0022888184,10.04689
1.5132135314886E13,-0.21369934,-0.0048217773,10.050735
1.5132140350287E13,-0.22857666,0.033843994,9.997742
1.5132145385687E13,-0.21975708,0.055511475,9.975449
1.5132150421088E13,-0.2245636,0.035476685,10.007431
1.5132155456488E13,-0.23509216,0.048583984,10.026764
1.5132160491888E13,-0.23599243,0.022491455,9.987381
1.5132165527289E13,-0.2577362,0.038146973,10.015747
1.5132170562689E13,-0.2519989,0.017410278,10.014343
1.513217559809E13,-0.20561218,0.026046753,10.069244
1.513218063349E13,-0.2084961,0.012237549,10.034576
1.513218566889E13,-0.22572327,-0.0054473877,9.977463
1.5132190704291E13,-0.24693298,0.009765625,9.979279
1.5132195739691E13,-0.2310791,0.0317688,10.016327
1.5132200775092E13,-0.24365234,0.027694702,10.012207
1.5132205810492E13,-0.22471619,0.034362793,10.02417
1.5132210845892E13,-0.20942688,0.04978943,10.036087
1.5132215881293E13,-0.22077942,0.048294067,10.023605
1.5132220916693E13,-0.23500061,0.05909729,10.001831
1.5132225952094E13,-0.21873474,0.041290283,10.049118
1.5132230987494E13,-0.20904541,0.0388031,10.048035
1.5132236022894E13,-0.22381592,0.044769287,10.045929
1.5132241058295E13,-0.23880005,0.049682617,9.99382
1.5132246093695E13,-0.2400055,0.044677734,9.982864
1.5132251129095E13,-0.22013855,0.06858826,10.044083
1.5132256164496E13,-0.21295166,0.09013367,10.025696
1.5132261199896E13,-0.23324585,0.049331665,10.014755
1.5132266235297E13,-0.23835754,0.04008484,10.012497
1.5132271270697E13,-0.24078369,0.037597656,10.01886
1.5132276306097E13,-0.21873474,0.049957275,10.055252
1.5132281341498E13,-0.2180481,0.033187866,10.045395
1.5132286376898E13,-0.2339325,0.01878357,9.998795
1.5132291412299E13,-0.23484802,0.034729004,10.018509
1.5132296447699E13,-0.20657349,0.044387817,10.034576
1.5132301483099E13,-0.20513916,0.032714844,10.03215
1.51323065185E13,-0.2102356,0.03314209,10.003265
1.51323115539E13,-0.21524048,0.049728394,10.001907
1.5132316589301E13,-0.24191284,0.03791809,10.053177
1.5132321624701E13,-0.2102356,0.052764893,10.025513
1.5132326660101E13,-0.20317078,0.029541016,10.074936
1.5132331695502E13,-0.21652222,0.071258545,10.033142
1.5132336730902E13,-0.20758057,0.05505371,10.030426
1.5132341766302E13,-0.22744751,0.03605652,10.024948
1.5132346801703E13,-0.22239685,0.06703186,10.049103
1.5132351837103E13,-0.2237091,0.03111267,10.067062
1.5132356872504E13,-0.20251465,0.03211975,10.027496
1.5132361907904E13,-0.21876526,0.025848389,10.037903
1.5132366943304E13,-0.24711609,0.012969971,10.033264
1.5132371978705E13,-0.25517273,-0.0064086914,10.025192
1.5132377014105E13,-0.22135925,0.027420044,10.0733185
1.5132382049506E13,-0.21737671,0.014343262,10.031479
1.5132387084906E13,-0.21076965,0.01260376,10.000214
1.5132392120306E13,-0.16555786,0.014831543,10.027145
1.5132397155707E13,-0.23010254,0.0634613,9.991089
1.5132402191107E13,-0.19969177,0.035217285,10.064438
1.5132407226508E13,-0.22155762,0.080459595,10.04158
1.5132412261908E13,-0.21504211,0.053237915,9.991272
1.5132417297308E13,-0.20098877,0.034118652,10.073868
1.5132422332709E13,-0.24360657,0.05088806,10.007462
1.5132427368109E13,-0.24584961,0.06210327,9.998474
1.513243240351E13,-0.20820618,0.033432007,9.99939
1.513243743891E13,-0.21559143,0.024597168,10.02356
1.513244247431E13,-0.22592163,0.060836792,10.012558
1.5132447509711E13,-0.24130249,0.037338257,10.016403
1.5132452545111E13,-0.22036743,0.021881104,10.030121
1.5132457580511E13,-0.24813843,0.018600464,9.998001
1.5132462615912E13,-0.24325562,-0.0027008057,10.050095
1.5132467651312E13,-0.24220276,0.036087036,10.033447
1.5132472686713E13,-0.24575806,0.01826477,10.037628
1.5132477722113E13,-0.23165894,0.01512146,9.992935
1.5132482757513E13,-0.22801208,0.035125732,9.990143
1.5132487792914E13,-0.21325684,0.018859863,9.985901
1.5132492828314E13,-0.23007202,0.036712646,9.988281
1.5132497863715E13,-0.22399902,0.057556152,10.002594
1.5132502899115E13,-0.24920654,0.03050232,10.004166
1.5132507934515E13,-0.2310791,0.034057617,10.036179
1.5132512969916E13,-0.23817444,0.05369568,10.023788
1.5132518005316E13,-0.23472595,0.04673767,10.011261
1.5132523040717E13,-0.20446777,0.045272827,10.03389
1.5132528076117E13,-0.20570374,0.04536438,10.043213
1.5132533111517E13,-0.20755005,0.019073486,10.00621
1.5132538146918E13,-0.22372437,0.013381958,10.014664
1.5132543182318E13,-0.2268982,0.01725769,10.03743
1.5132548217719E13,-0.22251892,0.030151367,10.015488
1.5132553253119E13,-0.22331238,0.050979614,10.001114
1.5132558288519E13,-0.23199463,0.047164917,10.012939
1.513256332392E13,-0.22877502,0.039718628,10.07048
1.513256835932E13,-0.23812866,0.039489746,10.051056
1.513257339472E13,-0.2362976,0.03627014,10.041748
1.5132578430121E13,-0.2375946,0.051620483,10.0229645
1.5132583465521E13,-0.204422,0.026046753,10.001953
1.5132588500922E13,-0.2110138,0.022415161,10.038727
1.5132593536322E13,-0.23756409,0.048614502,10.027069
1.5132598571722E13,-0.23413086,0.044662476,10.041672
1.5132603607123E13,-0.22148132,0.06391907,10.061554
1.5132608642523E13,-0.209198,0.06333923,10.042664
1.5132613677924E13,-0.2029419,0.042266846,10.007446
1.5132618713324E13,-0.20852661,0.05935669,9.974289
1.5132623748724E13,-0.23745728,0.053359985,9.987488
1.5132628784125E13,-0.24867249,0.0622406,9.9926605
1.5132633819525E13,-0.23312378,0.05290222,10.023224
1.5132638854926E13,-0.20541382,0.044265747,10.018036
1.5132643890326E13,-0.18530273,0.03627014,10.000381
1.5132648925726E13,-0.19972229,0.047058105,10.028687
1.5132653961127E13,-0.21786499,0.055633545,10.025711
1.5132658996527E13,-0.21902466,0.02658081,9.995331
1.5132664031927E13,-0.2335968,0.021438599,9.98381
1.5132669067328E13,-0.23579407,0.0393219,10.024246
1.5132674102728E13,-0.21351624,0.06736755,10.058914
1.5132679138129E13,-0.2441101,0.06510925,10.005966
1.5132684173529E13,-0.23631287,0.026031494,10.001938
1.5132689208929E13,-0.21990967,0.04057312,10.022247
1.513269424433E13,-0.23066711,0.042388916,9.998459
1.513269927973E13,-0.21347046,0.04937744,10.0338745
1.5132704315131E13,-0.24780273,0.07145691,10.015503
1.5132709350531E13,-0.2545929,0.065582275,10.018402
1.5132714385931E13,-0.21292114,0.03579712,10.046768
1.5132719421332E13,-0.20115662,0.038970947,10.029541
1.5132724456732E13,-0.2098999,0.03564453,10.027954
1.5132729492133E13,-0.2284851,0.04789734,10.017151
1.5132734527533E13,-0.22554016,0.04660034,9.982056
1.5132739562933E13,-0.19134521,0.06251526,10.032669
1.5132744598334E13,-0.1885376,0.027114868,10.051468
1.5132749633734E13,-0.2485199,0.06903076,10.010208
1.5132754669135E13,-0.24339294,0.050323486,10.015305
1.5132759704535E13,-0.20614624,0.06782532,10.03685
1.5132764739935E13,-0.24555969,0.018341064,10.007294
1.5132769775336E13,-0.23927307,0.044403076,9.991653
1.5132774810736E13,-0.19065857,0.04133606,10.004715
1.5132779846136E13,-0.24687195,0.06903076,10.077225
1.5132784881537E13,-0.22642517,0.05657959,10.00676
1.5132789916937E13,-0.24804688,0.031677246,10.033798
1.5132794952338E13,-0.20332336,0.03881836,10.031738
1.5132799987738E13,-0.2144928,0.04020691,10.046707
1.5132805023138E13,-0.19874573,0.012573242,10.004593
1.5132810058539E13,-0.20811462,0.06312561,10.043076
1.5132815093939E13,-0.21260071,0.029464722,10.0385895
1.513282012934E13,-0.1842041,0.05496216,10.024765
1.513282516474E13,-0.23806763,0.023803711,10.050095
1.513283020014E13,-0.24862671,0.016571045,10.006546
1.5132835235541E13,-0.21087646,0.013717651,10.0373535
1.5132840270941E13,-0.203125,0.032791138,10.039429
1.5132845306342E13,-0.23452759,-0.0048217773,9.997437
1.5132850341742E13,-0.21380615,0.03878784,10.013199
1.5132855377142E13,-0.2146759,0.03111267,9.997574
1.5132860412543E13,-0.19390869,0.047973633,10.024384
1.5132865447943E13,-0.20645142,0.03640747,10.055222
1.5132870483344E13,-0.21499634,0.03164673,10.051895
1.5132875518744E13,-0.23008728,0.011810303,10.044113
1.5132880554144E13,-0.21432495,0.023025513,10.066055
1.5132885589545E13,-0.22628784,0.055007935,10.043182
1.5132890624945E13,-0.22645569,0.020309448,10.021332
1.5132895660345E13,-0.22018433,0.047912598,9.997101
1.5132900695746E13,-0.19384766,0.057678223,9.999847
1.5132905731146E13,-0.20373535,0.03515625,10.020004
1.5132910766547E13,-0.22113037,0.030685425,9.998764
1.5132915801947E13,-0.24362183,0.049972534,10.018036
1.5132920837347E13,-0.2422638,0.04927063,10.032135
1.5132925872748E13,-0.20172119,0.014282227,10.033295
1.5132930908148E13,-0.18125916,0.0056762695,10.044189
1.5132935943549E13,-0.21343994,0.030166626,10.007568
1.5132940978949E13,-0.22077942,0.033447266,9.979248
1.5132946014349E13,-0.22531128,0.039001465,10.042114
1.513295104975E13,-0.2166748,0.06259155,10.016113
1.513295608515E13,-0.22755432,0.04019165,9.996643
1.5132961120551E13,-0.23884583,0.011581421,9.984436
1.5132966155951E13,-0.21202087,0.020370483,10.029587
1.5132971191351E13,-0.21881104,0.029403687,10.053436
1.5132976226752E13,-0.24475098,0.030456543,10.020706
1.5132981262152E13,-0.25476074,0.041305542,9.995361
1.5132986297552E13,-0.22203064,0.049682617,10.003906
1.5132991332953E13,-0.20204163,0.044677734,10.007538
1.5132996368353E13,-0.21710205,0.040115356,10.040375
1.5133001403754E13,-0.23318481,0.028686523,10.046005
1.5133006439154E13,-0.23551941,0.027023315,10.042007
1.5133011474554E13,-0.23727417,0.026931763,10.020325
1.5133016509955E13,-0.23872375,0.040908813,10.017914
1.5133021545355E13,-0.20245361,0.033828735,10.007706
1.5133026580756E13,-0.23127747,0.025512695,10.005905
1.5133031616156E13,-0.24951172,0.027709961,10.046555
1.5133036651556E13,-0.21910095,0.05369568,10.035553
1.5133041686957E13,-0.23356628,0.040039063,10.033142
1.5133046722357E13,-0.21160889,0.030151367,10.050018
1.5133051757758E13,-0.22232056,0.025436401,10.041275
1.5133056793158E13,-0.23973083,0.038619995,10.017303
1.5133061828558E13,-0.22381592,0.021591187,9.999573
1.5133066863959E13,-0.2315216,0.047943115,10.064636
1.5133071899359E13,-0.22744751,0.07098389,10.074188
1.513307693476E13,-0.22999573,0.027023315,9.9964905
1.513308197016E13,-0.22993469,0.03677368,10.031296
1.513308700556E13,-0.21443176,0.025497437,10.032425
1.5133092040961E13,-0.23530579,0.050582886,10.030518
1.5133097076361E13,-0.21966553,0.048034668,10.005981
1.5133102111761E13,-0.22492981,0.012161255,10.08786
1.5133107147162E13,-0.21884155,0.04374695,10.038712
1.5133112182562E13,-0.24023438,0.060195923,10.02095
1.5133117217963E13,-0.23976135,0.019256592,10.050461
1.5133122253363E13,-0.22398376,0.029541016,10.044647
1.5133127288763E13,-0.23503113,0.040222168,10.011124
1.5133132324164E13,-0.2124939,0.025924683,10.040268
1.5133137359564E13,-0.20137024,0.062210083,10.041107
1.5133142394965E13,-0.23612976,0.07330322,10.005539
1.5133147430365E13,-0.2003479,0.02909851,9.989136
1.5133152465765E13,-0.21218872,0.049957275,10.073944
1.5133157501166E13,-0.18925476,0.043670654,10.032257
1.5133162536566E13,-0.1769104,0.0054626465,10.04332
1.5133167571967E13,-0.22241211,0.036590576,10.050232
1.5133172607367E13,-0.24473572,0.052215576,10.030136
1.5133177642767E13,-0.2102356,0.06694031,10.029602
1.5133182678168E13,-0.20906067,0.05558777,9.989868
1.5133187713568E13,-0.18643188,0.014846802,10.019104
1.5133192748969E13,-0.19137573,0.047821045,10.072388
1.5133197784369E13,-0.24465942,0.06462097,9.995102
1.5133202819769E13,-0.20675659,0.012680054,9.990723
1.513320785517E13,-0.2444458,0.07699585,10.050507
1.513321289057E13,-0.2510376,0.030410767,10.028671
1.513321792597E13,-0.25169373,0.05307007,10.004837
1.5133222961371E13,-0.24052429,0.04547119,10.060654
1.5133227996771E13,-0.22489929,0.008468628,10.066864
1.5133233032172E13,-0.22741699,0.02861023,10.017334
1.5133238067572E13,-0.2326355,0.063064575,10.0173645
1.5133243102972E13,-0.23744202,0.05883789,9.958878
1.5133248138373E13,-0.23632813,0.045578003,10.040207
1.5133253173773E13,-0.2191925,0.06718445,10.002396
1.5133258209174E13,-0.22073364,0.03138733,9.988327
1.5133263244574E13,-0.23413086,0.015472412,9.973389
1.5133268279974E13,-0.23550415,0.023406982,9.988464
1.5133273315375E13,-0.22131348,0.034576416,10.001862
1.5133278350775E13,-0.22766113,0.024505615,10.003693
1.5133283386176E13,-0.21469116,0.034362793,10.0624695
1.5133288421576E13,-0.23516846,0.053237915,10.042923
1.5133293456976E13,-0.23297119,0.03364563,10.016281
1.5133298492377E13,-0.20802307,0.015548706,10.017639
1.5133303527777E13,-0.21502686,0.055725098,10.009369
1.5133308563177E13,-0.1976471,0.08129883,10.037109
1.5133313598578E13,-0.20404053,0.058654785,10.029022
1.5133318633978E13,-0.22225952,-0.0033569336,10.012924
1.5133323669379E13,-0.24124146,8.8500977E-4,10.03894
1.5133328704779E13,-0.20814514,0.030807495,10.061996
1.5133333740179E13,-0.21520996,0.03553772,10.029266
1.513333877558E13,-0.20457458,0.029403687,10.005447
1.513334381098E13,-0.18737793,0.025726318,10.010284
1.5133348846381E13,-0.20147705,0.027801514,10.0299225
1.5133353881781E13,-0.21463013,0.03614807,10.008133
1.5133358917181E13,-0.22589111,0.039916992,10.013077
1.5133363952582E13,-0.21650696,0.026000977,10.022827
1.5133368987982E13,-0.21600342,0.025497437,10.006378
1.5133374023383E13,-0.22587585,0.03805542,10.013184
1.5133379058783E13,-0.23202515,0.046279907,10.033051
1.5133384094183E13,-0.22309875,0.033355713,10.059891
1.5133389129584E13,-0.21118164,0.0211792,10.0390625
1.5133394164984E13,-0.20140076,0.030960083,10.001495
1.5133399200385E13,-0.19897461,0.05595398,9.990326
1.5133404235785E13,-0.20071411,0.04588318,9.990112
1.5133409271185E13,-0.23565674,0.022369385,10.017151
1.5133414306586E13,-0.23783875,0.025756836,10.046127
1.5133419341986E13,-0.20890808,0.056167603,10.0512085
1.5133424377386E13,-0.23068237,0.042373657,10.055466
1.5133429412787E13,-0.23678589,0.011306763,10.045746
1.5133434448187E13,-0.21670532,0.0342865,10.020142
1.5133439483588E13,-0.2086029,0.034469604,10.018921
1.5133444518988E13,-0.20088196,0.058929443,9.9904785
1.5133449554388E13,-0.18920898,0.05329895,10.010086
1.5133454589789E13,-0.21055603,0.03717041,10.04364
1.5133459625189E13,-0.22496033,0.054870605,10.012558
1.513346466059E13,-0.23846436,0.04864502,9.981659
1.513346969599E13,-0.23207092,0.031341553,10.0186
1.513347473139E13,-0.22732544,0.04055786,10.002106
1.5133479766791E13,-0.25512695,0.037490845,9.987656
1.5133484802191E13,-0.20880127,0.06314087,10.017059
1.5133489837592E13,-0.22369385,0.071517944,9.988495
1.5133494872992E13,-0.19726563,0.046691895,10.002869
1.5133499908392E13,-0.24356079,0.03353882,10.031235
1.5133504943793E13,-0.2183075,0.03164673,10.016617
1.5133509979193E13,-0.26161194,0.03164673,10.039185
1.5133515014594E13,-0.2559967,0.06312561,9.989227
1.5133520049994E13,-0.19851685,-0.0033721924,10.054535
1.5133525085394E13,-0.20057678,0.03970337,9.967621
1.5133530120795E13,-0.19636536,0.012863159,10.00177
1.5133535156195E13,-0.20065308,-0.006225586,10.035782
1.5133540191595E13,-0.24571228,0.040893555,10.059113
1.5133545226996E13,-0.2268982,0.02003479,9.990341
1.5133550262396E13,-0.22669983,0.03010559,10.057846
1.5133555297797E13,-0.22213745,-0.0038146973,10.011719
1.5133560333197E13,-0.22213745,6.713867E-4,10.043137
1.5133565368597E13,-0.22650146,0.072387695,10.036865
