t,ax,ay,az 
1.5395849322751E13,-0.14546204,-0.019622803,9.904434
1.5395854358152E13,-0.13279724,0.011444092,9.981079
1.5395859393552E13,-0.12561035,0.014984131,10.041321
1.5395864428952E13,-0.08457947,-0.007232666,9.930557
1.5395869464353E13,-0.13569641,-0.011077881,9.897186
1.5395874499753E13,-0.10673523,-0.0066223145,10.019516
1.5395879535154E13,-0.09854126,-0.022705078,9.966232
1.5395884570554E13,-0.11729431,0.0076446533,9.801544
1.5395889605954E13,-0.11071777,0.023452759,9.983444
1.5395894641355E13,-0.15750122,0.03125,9.991226
1.5395899676755E13,-0.13705444,0.017715454,9.949188
1.5395904712156E13,-0.10446167,-0.003250122,9.934326
1.5395909747556E13,-0.08540344,0.011138916,10.03064
1.5395914782956E13,-0.10649109,-0.011367798,9.936218
1.5395919818357E13,-0.11907959,-0.0131073,9.810196
1.5395924853757E13,-0.08882141,0.009429932,9.950653
1.5395929889158E13,-0.1269226,0.006576538,10.062805
1.5395934924558E13,-0.12757874,0.028411865,9.898331
1.5395939959958E13,-0.12986755,0.013305664,9.927933
1.5395944995359E13,-0.11685181,0.03729248,10.0008545
1.5395950030759E13,-0.10424805,0.00793457,9.991257
1.5395955066159E13,-0.13729858,0.036102295,9.885086
1.539596010156E13,-0.15180969,0.0053710938,9.861679
1.539596513696E13,-0.12612915,0.027938843,10.026138
1.5395970172361E13,-0.14723206,-0.01159668,10.049515
1.5395975207761E13,-0.1418457,0.012542725,9.977661
1.5395980243161E13,-0.12553406,0.018447876,10.006073
1.5395985278562E13,-0.10333252,0.027664185,9.997406
1.5395990313962E13,-0.11595154,0.05467224,9.939758
1.5395995349363E13,-0.10731506,0.02217102,9.941971
1.5396000384763E13,-0.13056946,0.0014343262,10.001953
1.5396005420163E13,-0.1386261,0.037078857,9.963272
1.5396010455564E13,-0.1252594,0.0018920898,9.987152
1.5396015490964E13,-0.13395691,-0.018722534,10.046082
1.5396020526365E13,-0.11378479,-0.0057678223,10.0394745
1.5396025561765E13,-0.10142517,0.0039978027,10.0243225
1.5396030597165E13,-0.10169983,0.014968872,10.015244
1.5396035632566E13,-0.12867737,0.028320313,10.064407
1.5396040667966E13,-0.12911987,0.038116455,10.070496
1.5396045703367E13,-0.12257385,0.044631958,10.01239
1.5396050738767E13,-0.12489319,0.033859253,10.034729
1.5396055774167E13,-0.113357544,0.024932861,10.081238
1.5396060809568E13,-0.13757324,-0.0027770996,10.014023
1.5396065844968E13,-0.12916565,-0.00932312,9.979355
1.5396070880368E13,-0.09867859,7.019043E-4,10.044922
1.5396075915769E13,-0.082458496,-0.009536743,10.049057
1.5396080951169E13,-0.11242676,0.0053100586,9.968338
1.539608598657E13,-0.13046265,0.0124053955,9.960159
1.539609102197E13,-0.11526489,0.01550293,10.036163
1.539609605737E13,-0.13006592,0.03768921,10.040741
1.5396101092771E13,-0.12249756,0.02758789,10.059555
1.5396106128171E13,-0.10997009,0.0066375732,10.134735
1.5396111163572E13,-0.12176514,0.031936646,10.045395
1.5396116198972E13,-0.10044861,0.02961731,9.9665985
1.5396121234372E13,-0.1055603,0.021331787,9.996628
1.5396126269773E13,-0.11201477,0.008529663,10.088745
1.5396131305173E13,-0.13110352,0.011917114,10.046448
1.5396136340574E13,-0.13612366,0.015655518,9.97644
1.5396141375974E13,-0.127182,-0.012588501,10.031982
1.5396146411374E13,-0.15452576,-0.026641846,10.082291
1.5396151446775E13,-0.11112976,0.011642456,10.035248
1.5396156482175E13,-0.13217163,0.05204773,9.987762
1.5396161517576E13,-0.1512146,0.018310547,10.062851
1.5396166552976E13,-0.15707397,0.01574707,10.052139
1.5396171588376E13,-0.119903564,0.017364502,9.969757
1.5396176623777E13,-0.11657715,-0.043685913,10.028381
1.5396181659177E13,-0.11961365,-0.0076446533,10.109024
1.5396186694577E13,-0.12547302,-0.004058838,10.042664
1.5396191729978E13,-0.15957642,0.018371582,9.987564
1.5396196765378E13,-0.14819336,0.030532837,10.038208
1.5396201800779E13,-0.13104248,0.027374268,10.069168
1.5396206836179E13,-0.15322876,-0.0013885498,9.991425
1.5396211871579E13,-0.13565063,-0.012893677,9.968384
1.539621690698E13,-0.15696716,0.0030670166,10.021271
1.539622194238E13,-0.092178345,0.0054626465,10.008621
1.5396226977781E13,-0.15576172,0.016998291,9.924561
1.5396232013181E13,-0.12025452,0.022064209,10.0394745
1.5396237048581E13,-0.16262817,-0.018341064,10.04808
1.5396242083982E13,-0.11026001,4.7302246E-4,10.0052185
1.5396247119382E13,-0.11026001,-0.017471313,10.002975
1.5396252154783E13,-0.10809326,7.9345703E-4,10.048904
1.5396257190183E13,-0.114746094,0.004257202,10.062134
1.5396262225583E13,-0.1476593,0.021911621,9.980881
1.5396267260984E13,-0.108566284,-0.010925293,10.044495
1.5396272296384E13,-0.1375122,0.019973755,10.100845
1.5396277331784E13,-0.1031189,0.044204712,10.032379
1.5396282367185E13,-0.15750122,0.0015411377,9.997787
1.5396287402585E13,-0.13342285,-0.0030822754,10.011597
1.5396292437986E13,-0.10379028,0.02822876,10.086334
1.5396297473386E13,-0.114852905,0.013092041,9.97348
1.5396302508786E13,-0.09712219,0.023498535,9.979233
1.5396307544187E13,-0.12121582,0.005508423,10.027618
1.5396312579587E13,-0.10652161,-0.0056762695,10.030212
1.5396317614988E13,-0.13192749,-0.003982544,9.987686
1.5396322650388E13,-0.15127563,-0.045532227,10.047638
1.5396327685788E13,-0.14994812,-0.046951294,10.0412445
1.5396332721189E13,-0.12730408,0.031982422,10.053955
1.5396337756589E13,-0.13778687,-0.0056915283,9.963409
1.539634279199E13,-0.096466064,-4.7302246E-4,10.07457
1.539634782739E13,-0.11062622,0.01625061,10.08371
1.539635286279E13,-0.1237793,-1.0681152E-4,9.989258
1.5396357898191E13,-0.12231445,-1.9836426E-4,10.051941
1.5396362933591E13,-0.13168335,0.0030212402,10.097275
1.5396367968992E13,-0.1347351,0.01222229,10.068466
1.5396373004392E13,-0.13201904,-5.493164E-4,9.994034
1.5396378039792E13,-0.11836243,0.01449585,10.025589
1.5396383075193E13,-0.12471008,0.03211975,10.076736
1.5396388110593E13,-0.12147522,0.039779663,10.036484
1.5396393145993E13,-0.12454224,0.019180298,10.025803
1.5396398181394E13,-0.14245605,0.0090789795,10.069
1.5396403216794E13,-0.13519287,7.019043E-4,10.067184
1.5396408252195E13,-0.13877869,-0.0027923584,10.060745
1.5396413287595E13,-0.15078735,0.0031280518,10.063461
1.5396418322995E13,-0.14186096,0.0015563965,10.041962
1.5396423358396E13,-0.12922668,0.025100708,9.99057
1.5396428393796E13,-0.12200928,0.03729248,9.974701
1.5396433429197E13,-0.108932495,0.012313843,10.0265045
1.5396438464597E13,-0.09565735,0.012939453,9.999863
1.5396443499997E13,-0.107406616,0.012191772,9.964371
1.5396448535398E13,-0.12359619,0.0087890625,10.033951
1.5396453570798E13,-0.12046814,0.014633179,10.058289
1.5396458606199E13,-0.13168335,-2.593994E-4,10.025238
1.5396463641599E13,-0.15040588,0.027816772,10.033157
1.5396468676999E13,-0.14605713,0.0050811768,10.084198
1.53964737124E13,-0.16049194,0.012176514,10.05542
1.53964787478E13,-0.1485138,-0.0025634766,10.00853
1.5396483783201E13,-0.14503479,0.004196167,10.036865
1.5396488818601E13,-0.15000916,0.008377075,10.042755
1.5396493854001E13,-0.16984558,0.0158844,9.994476
1.5396498889402E13,-0.16455078,-0.015609741,9.993195
1.5396503924802E13,-0.13856506,0.008270264,10.028824
1.5396508960202E13,-0.10960388,-0.013381958,10.003601
1.5396513995603E13,-0.111831665,-0.0056915283,9.958511
1.5396519031003E13,-0.15248108,7.019043E-4,9.998169
1.5396524066404E13,-0.16262817,-0.010955811,10.037628
1.5396529101804E13,-0.12297058,0.016159058,10.055222
1.5396534137204E13,-0.11502075,-0.0020599365,9.966919
1.5396539172605E13,-0.1477356,-3.2043457E-4,9.991379
1.5396544208005E13,-0.108688354,0.025802612,10.048325
1.5396549243406E13,-0.15283203,0.023254395,10.041138
1.5396554278806E13,-0.12591553,0.06291199,9.984894
1.5396559314206E13,-0.10246277,-0.011474609,9.998764
1.5396564349607E13,-0.1451416,0.008285522,9.99382
1.5396569385007E13,-0.14385986,-0.01902771,10.000092
1.5396574420408E13,-0.15208435,-0.0016326904,10.047165
1.5396579455808E13,-0.113723755,0.016906738,10.048218
1.5396584491208E13,-0.12205505,0.031463623,9.925827
1.5396589526609E13,-0.12208557,0.008071899,10.016754
1.5396594562009E13,-0.10745239,0.045532227,9.955109
1.5396599597409E13,-0.0773468,0.026123047,10.069916
1.539660463281E13,0.14483643,0.07998657,9.926285
1.539660966821E13,0.35112,0.09841919,9.955917
1.5396614703611E13,0.14698792,0.035964966,10.033539
1.5396619739011E13,0.1656189,0.06173706,10.041809
1.5396624774411E13,0.3284607,0.07661438,9.895187
1.5396629809812E13,0.32388306,0.068862915,10.159515
1.5396634845212E13,0.22921753,0.026763916,10.003433
1.5396639880613E13,0.13536072,0.10292053,9.810165
1.5396644916013E13,-0.060424805,-8.239746E-4,10.252441
1.5396649951413E13,-0.27261353,-0.053894043,10.19104
1.5396654986814E13,-0.3215027,-0.039871216,10.042603
1.5396660022214E13,-0.411438,-0.029327393,10.052963
1.5396665057615E13,-0.54330444,-0.03100586,9.850082
1.5396670093015E13,-0.48136902,-0.05493164,10.074081
1.5396675128415E13,-0.37297058,-0.0541687,10.132355
1.5396680163816E13,-0.52249146,-0.09799194,10.012253
1.5396685199216E13,-0.51664734,-0.037399292,9.984741
1.5396690234617E13,-0.27905273,0.0076141357,9.960007
1.5396695270017E13,-0.07322693,-0.03387451,10.106644
1.5396700305417E13,-0.12307739,-0.022338867,10.227081
1.5396705340818E13,-0.14981079,-0.014297485,9.996948
1.5396710376218E13,-0.12597656,-0.01499939,10.036819
1.5396715411618E13,-0.10600281,-0.051834106,10.130737
1.5396720447019E13,-0.08004761,-0.042404175,9.988403
1.5396725482419E13,-0.08018494,0.03277588,9.978348
1.539673051782E13,-0.124053955,0.07312012,9.986679
1.539673555322E13,-0.20727539,0.07563782,9.997925
1.539674058862E13,-0.26461792,0.04246521,9.871567
1.5396745624021E13,-0.33598328,-0.026260376,10.015884
1.5396750659421E13,-0.36680603,-0.032684326,10.083206
1.5396755694822E13,-0.3794098,-0.029373169,9.910522
1.5396760730222E13,-0.45054626,-0.068603516,9.943039
1.5396765765622E13,-0.50717163,-0.08305359,9.993637
1.5396770801023E13,-0.55300903,-0.063705444,9.955444
1.5396775836423E13,-0.51109314,-0.1063385,10.081482
1.5396780871824E13,-0.44036865,-0.1678772,10.192734
1.5396785907224E13,-0.42684937,-0.21655273,10.388321
1.5396790942624E13,-0.08699036,-0.31010437,10.394562
1.5396795978025E13,0.29005432,-0.20178223,10.148788
1.5396801013425E13,0.17054749,-0.19070435,10.348297
1.5396806048826E13,-0.016693115,-0.4320526,10.242538
1.5396811084226E13,0.099746704,-0.6452484,9.951248
1.5396816119626E13,0.35250854,-0.66438293,9.856491
1.5396821155027E13,0.28120422,-0.25761414,9.794815
1.5396826190427E13,-0.1453247,-0.03829956,9.823074
1.5396831225827E13,-0.32104492,-0.023101807,9.994995
1.5396836261228E13,-0.5132904,-0.2296753,10.147324
1.5396841296628E13,-0.79437256,-0.55758667,10.065323
1.5396846332029E13,-1.1179199,-0.96325684,9.903076
1.5396851367429E13,-1.1064453,-0.9710541,9.698959
1.5396856402829E13,-0.68185425,-0.5866852,9.673187
1.539686143823E13,0.05319214,-0.06842041,9.764969
1.539686647363E13,0.83239746,0.5126953,9.987656
1.5396871509031E13,1.1325073,0.5578766,10.088837
1.5396876544431E13,0.95144653,0.38676453,9.768356
1.5396881579831E13,0.44085693,0.22494507,9.380936
1.5396886615232E13,0.06768799,-0.07745361,9.6367035
1.5396891650632E13,0.14593506,-0.29637146,9.721924
1.5396896686033E13,0.016677856,-0.66552734,9.838104
1.5396901721433E13,0.03855896,-0.78253174,10.164688
1.5396906756833E13,0.20654297,-0.71687317,10.10791
1.5396911792234E13,0.3288269,-0.6623535,9.94133
1.5396916827634E13,0.6031189,-0.6296234,9.710114
1.5396921863034E13,0.8983612,-0.4250183,10.064743
1.5396926898435E13,1.1254883,-5.493164E-4,10.482895
1.5396931933835E13,1.1540527,0.3499298,10.771988
1.5396936969236E13,0.9611206,0.6352539,10.483139
1.5396942004636E13,0.37319946,0.66825867,10.469482
1.5396947040036E13,0.20097351,0.55552673,10.282455
1.5396952075437E13,0.18357849,0.269104,10.225647
1.5396957110837E13,0.30426025,-0.024856567,10.1064
1.5396962146238E13,0.1359253,-0.31887817,10.259018
1.5396967181638E13,0.4036255,-0.4100647,9.975128
1.5396972217038E13,0.8278961,-0.6833191,9.678452
1.5396977252439E13,0.98973083,-0.7306061,9.475204
1.5396982287839E13,0.62153625,-0.667923,9.8454895
1.539698732324E13,0.13552856,-0.45892334,10.037064
1.539699235864E13,-0.18896484,-0.3695984,10.443146
1.539699739404E13,-0.66767883,-0.4459381,11.212509
1.5397002429441E13,-0.6876221,-0.65293884,10.529282
1.5397007464841E13,-0.81474304,-0.7710724,10.284454
1.5397012500242E13,-0.933548,-0.73139954,10.091522
1.5397017535642E13,-0.47428894,-0.675827,10.202087
1.5397022571042E13,0.32286072,-0.73332214,9.945984
1.5397027606443E13,0.684433,-0.42059326,9.438187
1.5397032641843E13,0.38388062,0.012817383,10.334396
1.5397037677243E13,0.114608765,0.18803406,10.547668
1.5397042712644E13,0.11619568,-0.030670166,10.344299
1.5397047748044E13,0.1763916,-0.40026855,9.908539
1.5397052783445E13,0.083602905,-0.9025879,9.911575
1.5397057818845E13,-0.02720642,-1.2901001,10.018082
1.5397062854245E13,-0.21812439,-1.4356995,10.127319
1.5397067889646E13,-0.24804688,-1.3963776,10.123367
1.5397072925046E13,-0.28042603,-1.2698059,10.020676
1.5397077960447E13,-0.16067505,-1.132019,9.380859
1.5397082995847E13,0.20529175,-0.953598,8.676361
1.5397088031247E13,0.11897278,-0.66822815,9.778244
1.5397093066648E13,0.073013306,-0.4108429,10.630753
1.5397098102048E13,0.07740784,-0.41888428,10.287964
1.5397103137449E13,-0.28771973,-0.6421814,10.180176
1.5397108172849E13,-0.60809326,-0.89779663,9.946335
1.5397113208249E13,-0.78681946,-1.2229614,9.702087
1.539711824365E13,-0.88414,-1.4470825,9.836121
1.539712327905E13,-0.7751312,-1.3469849,9.962784
1.5397128314451E13,-0.55859375,-0.963501,10.166519
1.5397133349851E13,-0.35490417,-0.5334015,10.336548
1.5397138385251E13,-0.16127014,-0.3132782,10.2035675
1.5397143420652E13,-0.006729126,-0.3722992,9.785477
1.5397148456052E13,0.1402893,-0.32273865,9.928223
1.5397153491452E13,0.37297058,-0.27630615,10.017639
1.5397158526853E13,0.55877686,-0.60118103,10.0616
1.5397163562253E13,0.6696167,-0.7867279,10.2955475
1.5397168597654E13,0.73332214,-0.8904114,9.975693
1.5397173633054E13,0.6459198,-0.8898773,9.676086
1.5397178668454E13,0.07435608,-0.798996,9.703049
1.5397183703855E13,-0.84114075,-0.6131134,10.130325
1.5397188739255E13,-1.4474487,-0.44044495,10.578903
1.5397193774656E13,-1.4459229,-0.28904724,10.020477
1.5397198810056E13,-1.1661224,-0.2030487,9.7659
1.5397203845456E13,-0.6598816,-0.2730255,9.916107
1.5397208880857E13,0.047302246,-0.48945618,10.099365
1.5397213916257E13,0.5892334,-0.7134552,9.960968
1.5397218951658E13,0.98223877,-0.871521,9.907135
1.5397223987058E13,0.74105835,-0.90885925,10.1241455
1.5397229022458E13,0.6342468,-0.8815613,10.158997
1.5397234057859E13,0.2893982,-1.2682953,9.983475
1.5397239093259E13,-0.0105896,-1.9096985,9.865067
1.5397244128659E13,-0.2383728,-2.1018524,9.721268
1.539724916406E13,-0.59954834,-2.18956,9.734695
1.539725419946E13,-0.6238098,-2.375885,9.801285
1.5397259234861E13,-0.44862366,-2.2286987,9.805634
1.5397264270261E13,0.12098694,-1.9274902,9.811905
1.5397269305661E13,0.6312561,-1.3977203,9.619019
1.5397274341062E13,1.0299225,-0.6345215,9.676483
1.5397279376462E13,1.2555084,-0.067611694,10.375702
1.5397284411863E13,1.6205444,0.03529358,10.308594
1.5397289447263E13,1.6316681,-0.23408508,10.163437
1.5397294482663E13,1.5041962,-0.53440857,9.905533
1.5397299518064E13,1.0140686,-0.5127411,10.039398
1.5397304553464E13,0.56391907,-0.6132965,9.87059
1.5397309588865E13,-0.17449951,-0.51924133,9.814789
1.5397314624265E13,-1.0618439,-0.54174805,10.084686
1.5397319659665E13,-1.2418671,-0.6325531,10.292343
1.5397324695066E13,-0.7187195,-0.46829224,10.388718
1.5397329730466E13,-0.12541199,-0.54074097,10.255844
1.5397334765867E13,0.26887512,-0.59584045,10.036987
1.5397339801267E13,0.14883423,-0.42636108,10.202194
1.5397344836667E13,-0.15467834,-0.39234924,10.153564
1.5397349872068E13,-0.105667114,-0.60087585,10.124756
1.5397354907468E13,1.5867157,-1.0399323,10.049881
1.5397359942868E13,1.8743591,-1.1694641,9.950165
1.5397364978269E13,2.8731232,-1.179184,9.833862
1.5397370013669E13,2.9950867,-1.0606842,9.689011
1.539737504907E13,2.3699036,-1.0064697,9.698624
1.539738008447E13,2.2516785,-0.92099,9.663467
1.539738511987E13,1.9019012,-1.0327148,9.71257
1.5397390155271E13,1.1244049,-1.2183838,9.897064
1.5397395190671E13,0.028289795,-1.2819977,9.708542
1.5397400226072E13,-1.3759918,-1.196991,9.790955
1.5397405261472E13,-2.3573303,-1.2398224,10.000748
1.5397410296872E13,-2.4480286,-1.2711334,9.860275
1.5397415332273E13,-2.0266724,-1.2780914,9.842102
1.5397420367673E13,-1.2988129,-1.2607422,9.912018
1.5397425403074E13,-0.50157166,-1.3626099,10.017502
1.5397430438474E13,0.17755127,-1.550415,10.093872
1.5397435473874E13,0.7784271,-1.7369995,10.0746155
1.5397440509275E13,1.1222839,-1.8145447,10.008606
1.5397445544675E13,0.8576355,-1.9504547,10.009949
1.5397450580076E13,0.5504608,-2.07164,9.967239
1.5397455615476E13,0.97817993,-2.2393188,9.871231
1.5397460650876E13,1.4802704,-2.34198,9.911087
1.5397465686277E13,1.5842896,-2.0618134,10.017242
1.5397470721677E13,1.9084167,-1.5561676,10.038223
1.5397475757077E13,2.6916199,-1.1721802,10.053833
1.5397480792478E13,3.1381378,-1.0479889,10.022705
1.5397485827878E13,3.3532867,-0.86294556,9.871353
1.5397490863279E13,3.5464172,-0.6368866,9.831314
1.5397495898679E13,3.4132996,-0.6883087,9.768646
1.5397500934079E13,3.1463776,-0.79792786,9.617554
1.539750596948E13,2.8962097,-0.7425842,9.554184
1.539751100488E13,2.4385834,-0.47705078,9.603577
1.5397516040281E13,1.6500702,-0.34140015,9.8697815
1.5397521075681E13,0.8356476,-0.45103455,9.79071
1.5397526111081E13,0.5395813,-0.365448,9.90007
1.5397531146482E13,0.22732544,-0.37791443,9.9361725
1.5397536181882E13,-0.06277466,-0.36372375,9.94487
1.5397541217283E13,-0.49961853,-0.41848755,10.420349
1.5397546252683E13,-0.61946106,-0.649765,10.370987
1.5397551288083E13,-0.18444824,-0.7942047,10.294479
1.5397556323484E13,0.7252197,-0.8027649,10.025467
1.5397561358884E13,1.6828766,-1.126236,9.803574
1.5397566394284E13,2.4335785,-1.6704712,9.890106
1.5397571429685E13,2.826416,-2.139145,9.804962
1.5397576465085E13,2.8566437,-2.0348816,10.116226
1.5397581500486E13,2.2311096,-1.5650024,10.828232
1.5397586535886E13,1.2834473,-1.0450897,11.3068695
1.5397591571286E13,0.109695435,-0.63978577,11.453461
1.5397596606687E13,-0.7990265,-0.45887756,11.180405
1.5397601642087E13,-1.0143585,-0.42694092,11.007202
1.5397606677488E13,-0.35179138,-0.3491974,11.367569
1.5397611712888E13,0.7628937,-0.10467529,11.821854
1.5397616748288E13,1.8261108,-0.14813232,11.820984
1.5397621783689E13,2.6667633,-0.6180115,11.704727
1.5397626819089E13,3.0026855,-0.9785614,11.233353
1.539763185449E13,2.864624,-1.4785461,10.450439
1.539763688989E13,2.46669,-1.7725067,9.746841
1.539764192529E13,1.9134369,-1.740448,9.14032
1.5397646960691E13,1.4107056,-1.5384521,8.700424
1.5397651996091E13,1.1139221,-1.3462219,8.385422
1.5397657031492E13,1.0440369,-1.241806,8.393738
1.5397662066892E13,1.2039642,-1.1610107,8.910263
1.5397667102292E13,1.4343872,-1.0557709,9.49382
1.5397672137693E13,1.6288147,-0.8661499,10.004608
1.5397677173093E13,1.7082214,-0.6634674,10.36322
1.5397682208493E13,1.6947174,-0.4986267,10.615402
1.5397687243894E13,1.5900421,-0.41752625,10.925537
1.5397692279294E13,1.3607788,-0.71965027,11.316177
1.5397697314695E13,1.1540375,-0.93240356,11.522598
1.5397702350095E13,1.161911,-0.8485565,11.556351
1.5397707385495E13,1.0877686,-0.8598175,11.441849
1.5397712420896E13,1.1069794,-0.7923279,11.108017
1.5397717456296E13,1.2385864,-0.69821167,10.869171
1.5397722491697E13,1.4033203,-0.5336609,10.782333
1.5397727527097E13,1.7153168,-0.41177368,10.662216
1.5397732562497E13,2.0414581,-0.46272278,10.663452
1.5397737597898E13,2.3231812,-0.5209198,10.602005
1.5397742633298E13,2.42865,-0.59028625,10.335175
1.5397747668699E13,2.1525116,-0.7322235,10.076508
1.5397752704099E13,1.7067566,-0.9855652,9.687866
1.5397757739499E13,1.4273834,-1.2096863,9.470642
1.53977627749E13,1.3394928,-1.1875763,9.46788
1.53977678103E13,1.4804993,-0.84106445,9.697983
1.5397772845701E13,1.8312073,-0.51049805,10.004364
1.5397777881101E13,2.0697937,-0.45007324,10.199814
1.5397782916501E13,2.170761,-0.3549652,10.452515
1.5397787951902E13,2.0769653,-0.2808075,10.612869
1.5397792987302E13,1.9020386,-0.29330444,10.691788
1.5397798022702E13,1.6852417,-0.34326172,10.684174
1.5397803058103E13,1.6259918,-0.451828,10.595428
1.5397808093503E13,1.7850952,-0.53601074,10.431656
1.5397813128904E13,1.8856812,-0.5890503,10.470917
1.5397818164304E13,1.6621857,-0.6186218,10.439377
1.5397823199704E13,1.1376953,-0.6157379,9.95842
1.5397828235105E13,0.67884827,-0.5787811,9.270355
1.5397833270505E13,0.5625305,-0.5166931,8.79953
1.5397838305906E13,0.75408936,-0.5269165,8.821045
1.5397843341306E13,1.0809937,-0.57388306,9.2591095
1.5397848376706E13,1.3931732,-0.6639099,9.757202
1.5397853412107E13,1.498764,-0.7855835,10.212433
1.5397858447507E13,1.4021912,-0.8217468,10.570541
1.5397863482908E13,1.2760315,-0.7559967,10.670074
1.5397868518308E13,1.2693634,-0.59680176,10.58815
1.5397873553708E13,1.2523041,-0.5058899,10.345169
1.5397878589109E13,1.2535248,-0.50431824,10.16626
1.5397883624509E13,1.3765717,-0.43830872,10.216614
1.5397888659909E13,1.5186157,-0.4998932,10.322311
1.539789369531E13,1.5483551,-0.61387634,10.370789
1.539789873071E13,1.6396942,-0.55537415,10.267822
1.5397903766111E13,1.5205688,-0.54600525,9.882721
1.5397908801511E13,1.5362549,-0.4662323,9.500381
1.5397913836911E13,1.5641327,-0.47187805,9.364151
1.5397918872312E13,1.5943298,-0.4806366,9.364273
1.5397923907712E13,1.6266632,-0.41752625,9.506668
1.5397928943113E13,1.5984039,-0.32650757,9.562134
1.5397933978513E13,1.5105896,-0.19758606,9.745697
1.5397939013913E13,1.3461761,-0.19430542,9.939392
1.5397944049314E13,1.182663,-0.3058014,10.149551
1.5397949084714E13,0.9719238,-0.37239075,10.2964325
1.5397954120115E13,0.85606384,-0.41452026,10.277512
1.5397959155515E13,0.90579224,-0.35472107,10.081451
1.5397964190915E13,1.0085754,-0.38917542,9.791718
1.5397969226316E13,1.1468964,-0.45542908,9.495911
1.5397974261716E13,1.2604828,-0.5697632,9.193268
1.5397979297117E13,1.2867279,-0.5475006,8.961929
1.5397984332517E13,1.4289551,-0.3882904,8.820663
1.5397989367917E13,1.5307465,-0.21917725,8.665955
1.5397994403318E13,1.6805267,0.025558472,8.813858
1.5397999438718E13,1.5886993,0.077056885,9.275085
1.5398004474118E13,1.440567,-0.04862976,9.815979
1.5398009509519E13,1.0153656,-0.20907593,10.28952
1.5398014544919E13,0.66342163,-0.38935852,10.373611
1.539801958032E13,0.44874573,-0.5297699,10.436264
1.539802461572E13,0.52967834,-0.58503723,10.574921
1.539802965112E13,0.91696167,-0.4661255,10.506546
1.5398034686521E13,1.4530029,-0.31114197,10.219635
1.5398039721921E13,1.886734,-0.18148804,9.882141
1.5398044757322E13,2.1422272,-0.19059753,9.667587
1.5398049792722E13,2.1924133,-0.14938354,9.695114
1.5398054828122E13,1.8825226,-0.2300415,9.679245
1.5398059863523E13,1.4651337,-0.29525757,9.66008
1.5398064898923E13,1.1386719,-0.34036255,9.994583
1.5398069934324E13,0.8801727,-0.41760254,10.0147705
1.5398074969724E13,0.89501953,-0.28608704,10.155548
1.5398080005124E13,1.0319214,-0.23916626,10.30336
1.5398085040525E13,1.2669067,-0.124938965,10.126114
1.5398090075925E13,1.5720978,0.0028076172,9.716995
1.5398095111326E13,1.7395935,-0.061706543,9.373398
1.5398100146726E13,1.7368469,-0.23545837,9.2267
1.5398105182126E13,1.5012512,-0.36428833,9.145126
1.5398110217527E13,1.3027496,-0.37730408,9.170441
1.5398115252927E13,1.1644287,-0.37580872,9.210693
1.5398120288327E13,1.0024261,-0.3331604,9.320755
1.5398125323728E13,0.9234314,-0.28456116,9.439362
1.5398130359128E13,0.9549408,-0.20062256,9.587906
1.5398135394529E13,1.0956116,-0.039093018,9.802353
1.5398140429929E13,1.3257446,0.11979675,10.163757
1.5398145465329E13,1.5918579,0.18478394,10.373688
1.539815050073E13,1.6992035,0.13172913,10.41835
1.539815553613E13,1.5872192,-0.015777588,10.413239
1.5398160571531E13,1.397049,-0.14190674,10.267654
1.5398165606931E13,1.1654053,-0.16571045,10.1596985
1.5398170642331E13,0.951828,-0.14782715,10.140717
1.5398175677732E13,0.8733978,-0.1574707,10.063293
1.5398180713132E13,0.94158936,-0.18293762,9.951508
1.5398185748533E13,1.0983276,-0.18307495,9.878601
1.5398190783933E13,1.1921692,-0.1605835,9.780365
1.5398195819333E13,1.2372437,-0.14881897,9.631836
1.5398200854734E13,1.2324219,-0.16134644,9.496414
1.5398205890134E13,1.2615967,-0.16326904,9.342285
1.5398210925534E13,1.295044,-0.12625122,9.2499695
1.5398215960935E13,1.2750397,-0.038406372,9.239075
1.5398220996335E13,1.246582,0.051315308,9.295731
1.5398226031736E13,1.2798157,0.13505554,9.4045105
1.5398231067136E13,1.3566742,0.09490967,9.644791
1.5398236102536E13,1.4376526,0.070007324,9.9001465
1.5398241137937E13,1.5498962,0.0975647,10.025238
1.5398246173337E13,1.5940857,0.12716675,10.113983
1.5398251208738E13,1.7080994,0.20169067,10.191986
1.5398256244138E13,1.7646484,0.24630737,10.213593
1.5398261279538E13,1.8091736,0.21963501,10.17392
1.5398266314939E13,1.666687,0.17036438,10.122543
1.5398271350339E13,1.4406738,0.14222717,10.053116
1.539827638574E13,1.2644501,0.21330261,10.076111
1.539828142114E13,1.2489319,0.2593994,10.235123
1.539828645654E13,1.324295,0.24667358,10.42691
1.5398291491941E13,1.3555298,0.18377686,10.56015
1.5398296527341E13,1.4971008,0.23329163,10.54921
1.5398301562742E13,1.7121277,0.25898743,10.452255
1.5398306598142E13,1.7814026,0.17835999,10.2114105
1.5398311633542E13,1.7426147,0.14323425,9.75853
1.5398316668943E13,1.6744843,0.10986328,9.552322
1.5398321704343E13,1.7856903,0.026321411,9.378098
1.5398326739743E13,2.0223389,0.05671692,9.415817
1.5398331775144E13,2.0967712,0.06864929,9.3350525
1.5398336810544E13,2.0630188,0.14590454,9.414902
1.5398341845945E13,1.9048309,0.3623047,9.61763
1.5398346881345E13,1.8156128,0.3466034,9.848419
1.5398351916745E13,1.7232361,0.37538147,10.152557
1.5398356952146E13,1.610611,0.33332825,10.393738
1.5398361987546E13,1.5208282,0.23457336,10.40271
1.5398367022947E13,1.5921936,0.254776,10.4570465
1.5398372058347E13,1.7102661,0.25689697,10.496201
1.5398377093747E13,1.8020477,0.33422852,10.416107
1.5398382129148E13,1.6855316,0.31933594,10.244019
1.5398387164548E13,1.6378479,0.33488464,10.16629
1.5398392199949E13,1.7393188,0.34623718,10.179306
1.5398397235349E13,1.9665375,0.41490173,10.205536
1.5398402270749E13,2.2418823,0.48565674,10.193924
1.539840730615E13,2.372879,0.48735046,10.154373
1.539841234155E13,2.3633728,0.44900513,10.024277
1.5398417376951E13,2.269287,0.38815308,10.005661
1.5398422412351E13,2.2283936,0.34846497,9.934067
1.5398427447751E13,2.2741394,0.3387146,9.889343
1.5398432483152E13,2.188675,0.35092163,9.78862
1.5398437518552E13,2.1359406,0.39065552,9.778549
1.5398442553952E13,2.0696259,0.38446045,9.731064
1.5398447589353E13,1.9658966,0.32164,9.699707
1.5398452624753E13,1.8725281,0.31303406,9.805115
1.5398457660154E13,1.7660675,0.3672638,10.032059
1.5398462695554E13,1.8153992,0.4519806,10.223373
1.5398467730954E13,1.9476013,0.5157318,10.340515
1.5398472766355E13,2.0032349,0.52919006,10.403198
1.5398477801755E13,2.0615845,0.571167,10.42392
1.5398482837156E13,2.134903,0.5769043,10.369675
1.5398487872556E13,2.1472626,0.5288086,10.209122
1.5398492907956E13,2.068451,0.45376587,9.996429
1.5398497943357E13,2.031601,0.33802795,9.718063
1.5398502978757E13,2.0405426,0.36418152,9.44191
1.5398508014158E13,2.1240234,0.45002747,9.230896
1.5398513049558E13,2.2437744,0.5495148,9.107559
1.5398518084958E13,2.311081,0.6240082,9.098907
1.5398523120359E13,2.3536072,0.66560364,9.236679
1.5398528155759E13,2.3617096,0.68426514,9.515472
1.5398533191159E13,2.335373,0.6952667,9.788986
1.539853822656E13,2.214798,0.66889954,9.9618225
1.539854326196E13,1.9662933,0.59754944,10.032181
1.5398548297361E13,1.6923218,0.51094055,10.04715
1.5398553332761E13,1.5259857,0.53956604,10.041168
1.5398558368161E13,1.4635925,0.5596466,10.017319
1.5398563403562E13,1.4466553,0.47917175,9.953949
1.5398568438962E13,1.5197906,0.4585266,9.947601
1.5398573474363E13,1.7172089,0.59277344,9.990097
1.5398578509763E13,1.9590759,0.7974396,10.103378
1.5398583545163E13,2.1828156,0.9554901,10.218414
1.5398588580564E13,2.3881073,0.9546814,10.263412
1.5398593615964E13,2.5533447,0.8829498,10.215591
1.5398598651365E13,2.565857,0.7817383,10.077164
1.5398603686765E13,2.4371185,0.7140503,9.934448
1.5398608722165E13,2.2693024,0.7029114,9.702316
1.5398613757566E13,2.051468,0.6728058,9.560669
1.5398618792966E13,1.8925476,0.638031,9.433472
1.5398623828367E13,1.7120056,0.59458923,9.409714
1.5398628863767E13,1.4533691,0.51097107,9.384445
1.5398633899167E13,1.3750916,0.56404114,9.464096
1.5398638934568E13,1.5444336,0.74472046,9.679871
1.5398643969968E13,1.6707153,0.83244324,9.833466
1.5398649005368E13,1.6633606,0.8536682,9.9987335
1.5398654040769E13,1.5898895,0.8015747,9.991379
1.5398659076169E13,1.4686737,0.76330566,9.998718
1.539866411157E13,1.4510803,0.7598572,10.053421
1.539866914697E13,1.4962311,0.82299805,9.967651
1.539867418237E13,1.5309601,0.8266907,9.776733
1.5398679217771E13,1.5879211,0.8197174,9.5768585
1.5398684253171E13,1.6316376,0.75605774,9.640198
1.5398689288572E13,1.7895813,0.8195648,9.543488
1.5398694323972E13,1.9469299,0.8386688,9.376434
1.5398699359372E13,2.1033325,0.84077454,9.355621
1.5398704394773E13,2.0975494,0.7517395,9.361725
1.5398709430173E13,2.0765228,0.59059143,9.3567505
1.5398714465574E13,2.107956,0.6044464,9.52449
1.5398719500974E13,2.1935425,0.8642731,9.557556
1.5398724536374E13,2.1566925,1.0088806,9.75798
1.5398729571775E13,2.0777588,1.0578766,10.105972
1.5398734607175E13,2.0069122,1.0654144,10.4171295
1.5398739642576E13,1.9706116,1.0916138,10.651382
1.5398744677976E13,1.9831696,1.0170441,10.780182
1.5398749713376E13,1.9577179,0.8632965,10.838547
1.5398754748777E13,1.9158783,0.68370056,10.706985
1.5398759784177E13,1.9371796,0.71969604,10.524445
1.5398764819577E13,2.0106506,0.81796265,10.033234
1.5398769854978E13,2.0212555,0.8230133,9.504684
1.5398774890378E13,2.038681,0.86372375,9.148529
1.5398779925779E13,1.968277,0.8690491,9.023102
1.5398784961179E13,1.9077606,0.81729126,9.070816
1.5398789996579E13,1.9108276,0.8677521,9.3645935
1.539879503198E13,1.9642792,0.9674225,9.64827
1.539880006738E13,2.0038452,1.0378265,9.896942
1.5398805102781E13,2.0366821,1.0380707,10.024017
1.5398810138181E13,2.0378723,0.9358368,10.11972
1.5398815173581E13,1.9799042,0.9089508,10.189102
1.5398820208982E13,2.035553,0.98950195,10.232925
1.5398825244382E13,2.098648,0.99697876,10.2131195
1.5398830279783E13,1.9834595,0.9116821,10.1259
1.5398835315183E13,1.9851532,0.863678,10.094238
1.5398840350583E13,2.0999603,0.9191437,9.9622345
1.5398845385984E13,1.7587738,0.8369293,9.937103
1.5398850421384E13,1.5730896,0.87323,10.311462
1.5398855456784E13,1.7294769,1.0140991,10.513107
1.5398860492185E13,1.8377991,1.0217438,10.497116
1.5398865527585E13,1.9597931,1.1015625,10.408951
1.5398870562986E13,2.1895905,1.2128448,10.279053
1.5398875598386E13,2.3963165,1.2415009,10.170776
1.5398880633786E13,2.5036774,1.1763611,10.06694
1.5398885669187E13,2.483078,1.0597382,9.92543
1.5398890704587E13,2.3875732,0.95744324,9.786926
1.5398895739988E13,2.3135834,0.9820709,9.617493
1.5398900775388E13,2.2133636,1.0818634,9.484604
1.5398905810788E13,1.9836426,1.197815,9.453598
1.5398910846189E13,1.8184204,1.2906189,9.522614
1.5398915881589E13,2.0556488,1.4279785,9.816376
1.539892091699E13,1.8986511,1.3252716,10.104889
1.539892595239E13,2.3098145,1.4977722,10.534683
1.539893098779E13,2.5646057,1.5261536,10.623001
1.5398936023191E13,2.386261,1.4033203,10.519577
1.5398941058591E13,2.2686462,1.4161835,10.562393
1.5398946093992E13,2.251587,1.2867126,10.277481
1.5398951129392E13,2.174408,1.1463013,9.869522
1.5398956164792E13,2.264328,1.1867981,9.719254
1.5398961200193E13,2.3087463,1.3150482,9.550354
1.5398966235593E13,2.1734009,1.3493958,9.493973
1.5398971270993E13,2.3738708,1.4492798,9.607452
1.5398976306394E13,2.8609314,1.6038513,9.87442
1.5398981341794E13,2.5241241,1.3957214,9.765274
1.5398986377195E13,2.3250732,1.509903,9.9123535
1.5398991412595E13,2.3145142,1.6286316,9.980301
1.5398996447995E13,2.2903442,1.575531,10.006973
1.5399001483396E13,1.9070587,1.3781891,9.947784
1.5399006518796E13,1.565506,1.3181,10.256241
1.5399011554197E13,1.676117,1.3984985,10.400665
1.5399016589597E13,1.9345703,1.5050049,10.39534
1.5399021624997E13,2.201645,1.5829163,10.254822
1.5399026660398E13,2.3551636,1.6273041,10.197586
1.5399031695798E13,2.422058,1.6407013,10.134171
1.5399036731199E13,2.4558716,1.7169037,10.1770935
1.5399041766599E13,2.4683533,1.7096863,10.250137
1.5399046801999E13,2.3000336,1.7052002,10.140167
1.53990518374E13,2.1772308,1.6940002,9.804001
1.53990568728E13,2.2220154,1.7530823,9.653015
1.5399061908201E13,2.275299,1.7941284,9.571732
1.5399066943601E13,2.064209,1.7253418,9.5394745
1.5399071979001E13,1.9853668,1.6987762,9.514496
1.5399077014402E13,2.328888,1.7359467,9.603439
1.5399082049802E13,2.0060577,1.5409241,9.387192
1.5399087085202E13,1.9602203,1.649765,9.293289
1.5399092120603E13,2.2037659,1.6725006,9.170441
1.5399097156003E13,2.308258,1.5951843,8.860687
1.5399102191404E13,2.2736664,1.5734406,8.685822
1.5399107226804E13,2.3677216,1.7531891,8.653946
1.5399112262204E13,2.4526367,1.9669647,8.709518
1.5399117297605E13,2.4604492,2.0331726,8.876587
1.5399122333005E13,2.5075378,2.0627136,9.063217
1.5399127368406E13,2.5909119,2.0214233,9.288422
1.5399132403806E13,2.4288025,1.8912201,9.427933
1.5399137439206E13,2.1547089,1.8674774,9.414719
1.5399142474607E13,1.9024048,1.9033356,9.402588
1.5399147510007E13,1.7185211,1.8593445,9.483963
1.5399152545408E13,1.8059082,1.8618164,9.682556
1.5399157580808E13,2.085907,1.9319916,9.817657
1.5399162616208E13,2.069641,1.9137878,9.681351
1.5399167651609E13,2.2137604,1.9438629,9.729111
1.5399172687009E13,2.5234528,2.0082703,9.678909
1.5399177722409E13,2.7447662,2.008255,9.471268
1.539918275781E13,2.7375793,2.0104523,9.237839
1.539918779321E13,2.5693512,2.0388489,8.958633
1.5399192828611E13,2.4028778,2.0174255,8.729675
1.5399197864011E13,2.3412323,1.9761505,8.628372
1.5399202899411E13,2.3225403,1.9190674,8.526642
1.5399207934812E13,2.378418,1.9561768,8.478226
1.5399212970212E13,2.5692139,2.0582886,8.631012
1.5399218005613E13,2.8997803,2.1699066,8.973526
1.5399223041013E13,2.729889,2.1508331,9.150406
1.5399228076413E13,2.1877441,2.1773071,9.21582
1.5399233111814E13,2.1206512,2.3809204,9.493195
1.5399238147214E13,2.0931854,2.3268433,9.697372
1.5399243182615E13,2.129898,2.2396698,9.90654
1.5399248218015E13,2.544632,2.3501434,10.039215
1.5399253253415E13,2.864914,2.3483887,9.89389
1.5399258288816E13,2.8158112,2.2685547,9.459915
1.5399263324216E13,2.700714,2.2532654,9.103928
1.5399268359617E13,2.6546783,2.1988525,8.92926
1.5399273395017E13,2.6381683,2.1274261,8.792496
1.5399278430417E13,2.5667572,2.070694,8.690857
1.5399283465818E13,2.6676636,2.0833588,8.698227
1.5399288501218E13,2.7729645,2.1751862,8.768906
1.5399293536618E13,2.6299896,2.2126007,8.941452
1.5399298572019E13,2.5513,2.2650452,9.221298
1.5399303607419E13,2.6689606,2.3914948,9.536392
1.539930864282E13,2.918808,2.4837341,9.962875
1.539931367822E13,2.847992,2.422287,10.051147
1.539931871362E13,2.7099915,2.4486694,10.128067
1.5399323749021E13,2.7261047,2.523117,10.2308655
1.5399328784421E13,2.6859589,2.5237122,10.211807
1.5399333819822E13,2.566742,2.5296783,10.084564
1.5399338855222E13,2.4262543,2.6284943,9.967285
1.5399343890622E13,2.5844421,2.637024,9.786392
1.5399348926023E13,2.7010803,2.518814,9.559158
1.5399353961423E13,2.8345032,2.43956,9.405746
1.5399358996824E13,2.8154755,2.3830261,9.145828
1.5399364032224E13,2.8240662,2.306778,8.89978
1.5399369067624E13,2.9067383,2.1635437,8.863693
1.5399374103025E13,2.4956512,1.9574432,8.291
1.5399379138425E13,2.2866058,2.0862427,8.067429
1.5399384173826E13,2.2796326,2.1596985,8.272324
1.5399389209226E13,2.278946,2.1031647,8.622879
1.5399394244626E13,2.3781128,2.2651062,8.922241
1.5399399280027E13,2.6418152,2.3686829,9.318069
1.5399404315427E13,2.875229,2.5257874,9.72879
1.5399409350827E13,3.0595398,2.6174622,9.979309
1.5399414386228E13,2.9630585,2.7146454,10.000458
1.5399419421628E13,2.674652,2.684204,9.852219
1.5399424457029E13,2.562088,2.6056976,9.650818
1.5399429492429E13,2.6464844,2.5685425,9.54364
1.5399434527829E13,2.6510315,2.5095367,9.386719
1.539943956323E13,2.7024078,2.4835968,9.192078
1.539944459863E13,2.794403,2.5178375,9.445114
1.5399449634031E13,2.7248535,2.561737,9.640991
1.5399454669431E13,2.7793121,2.5930634,9.766785
1.5399459704831E13,2.8656769,2.6195831,9.775772
1.5399464740232E13,2.8275146,2.522705,9.698181
1.5399469775632E13,2.7653046,2.4601593,9.410706
1.5399474811033E13,2.758957,2.4438324,9.125214
1.5399479846433E13,2.8075104,2.3623505,8.80632
1.5399484881833E13,2.9154663,2.34375,8.638718
1.5399489917234E13,3.0029907,2.3937836,8.444366
1.5399494952634E13,2.932434,2.5026245,8.317383
1.5399499988034E13,2.7516937,2.5958557,8.422455
1.5399505023435E13,2.4986115,2.6990662,8.671082
1.5399510058835E13,2.2694855,2.748825,8.889084
1.5399515094236E13,2.3042145,2.823349,9.105743
1.5399520129636E13,2.4452972,2.879898,9.416214
1.5399525165036E13,2.5775452,2.8596191,9.59343
1.5399530200437E13,2.6953125,2.8339996,9.731079
1.5399535235837E13,2.8795319,2.8582458,9.852142
1.5399540271238E13,3.0538025,2.80484,9.829712
1.5399545306638E13,3.0959625,2.6954956,9.639069
1.5399550342038E13,2.9808197,2.5891418,9.414612
1.5399555377439E13,2.8397675,2.5246124,9.213852
1.5399560412839E13,2.7041779,2.4324188,9.041992
1.539956544824E13,2.6561127,2.443634,8.884186
1.539957048364E13,2.7971802,2.5731506,8.751892
1.539957551904E13,2.9045258,2.6320648,8.53569
1.5399580554441E13,2.9427185,2.6472778,8.434418
1.5399585589841E13,3.0052948,2.6632538,8.560577
1.5399590625242E13,3.060669,2.6869965,8.664917
1.5399595660642E13,2.9985046,2.689331,8.749191
1.5399600696042E13,2.9053192,2.7197266,8.888962
1.5399605731443E13,2.8871155,2.787201,9.071289
1.5399610766843E13,2.9811096,2.8553314,9.207733
1.5399615802243E13,3.055832,2.8879242,9.339615
1.5399620837644E13,3.0471497,2.9608002,9.331482
1.5399625873044E13,3.1172028,3.0244446,9.280441
1.5399630908445E13,3.020401,2.9940033,9.262924
1.5399635943845E13,2.8773956,2.9258728,9.142288
1.5399640979245E13,2.870102,2.790268,9.139465
1.5399646014646E13,2.9118042,2.6553345,8.986969
1.5399651050046E13,2.9241638,2.5691986,8.599411
1.5399656085447E13,2.9396667,2.6403046,8.553696
1.5399661120847E13,3.030548,2.675644,8.620331
1.5399666156247E13,3.0764923,2.7134705,8.775528
1.5399671191648E13,2.9165497,2.7710419,8.600418
1.5399676227048E13,2.9072418,2.873001,8.671829
1.5399681262449E13,2.9315338,2.9190826,8.855835
1.5399686297849E13,2.8820648,2.8757935,8.954727
1.5399691333249E13,2.9318848,2.8605652,8.965012
1.539969636865E13,3.001236,2.8960114,8.962875
1.539970140405E13,2.937088,2.8614807,9.051819
1.5399706439451E13,2.779129,2.8437347,9.047516
1.5399711474851E13,2.583191,2.9013367,8.861542
1.5399716510251E13,2.4577942,2.9437103,8.699478
1.5399721545652E13,2.492859,2.9823608,8.607742
1.5399726581052E13,2.5926056,2.8892517,8.6831665
1.5399731616452E13,2.6802979,2.8592682,8.637573
1.5399736651853E13,2.9474487,2.8069763,8.660416
1.5399741687253E13,3.2738953,2.7925415,8.657379
1.5399746722654E13,3.3855438,2.66156,8.44931
1.5399751758054E13,3.5001068,2.7106934,8.325333
1.5399756793454E13,3.407486,2.8716736,8.302597
1.5399761828855E13,3.2696838,2.843628,8.358948
1.5399766864255E13,3.0690155,2.923233,8.451355
1.5399771899656E13,2.9671326,3.1177063,8.683044
1.5399776935056E13,2.9744415,3.156372,8.985046
1.5399781970456E13,2.9013367,3.1107788,9.297211
1.5399787005857E13,2.750763,3.0455627,9.588974
1.5399792041257E13,2.7333374,3.0267487,9.7309265
1.5399797076658E13,2.7253418,3.0732422,9.791733
1.5399802112058E13,2.8101501,3.0674896,9.739731
1.5399807147458E13,2.8549805,3.0129395,9.708237
1.5399812182859E13,2.976715,3.0005188,9.487503
1.5399817218259E13,3.055481,2.9995575,9.220261
1.5399822253659E13,3.0558777,3.0027313,8.979919
1.539982728906E13,3.026764,3.0486145,8.792236
1.539983232446E13,3.0233765,3.031372,8.674866
1.5399837359861E13,3.0442352,2.9895477,8.580765
1.5399842395261E13,3.0531921,2.9775085,8.516251
1.5399847430661E13,2.9666595,2.984497,8.482849
1.5399852466062E13,2.8609772,2.9749146,8.464645
1.5399857501462E13,2.7957153,3.0016937,8.560181
1.5399862536863E13,2.6719818,3.0043182,8.768402
1.5399867572263E13,2.6369324,2.9402924,8.981064
1.5399872607663E13,2.7158508,2.9346313,9.020035
1.5399877643064E13,2.8342743,2.9792786,9.037827
1.5399882678464E13,2.8724976,3.0107727,9.106155
1.5399887713865E13,2.802948,3.059433,9.190857
1.5399892749265E13,2.6678467,3.0823364,9.254959
1.5399897784665E13,2.5674286,3.0549164,9.225296
1.5399902820066E13,2.6425934,3.069931,9.247757
1.5399907855466E13,2.8950806,3.1084747,9.385956
1.5399912890867E13,3.274765,3.1551514,9.569855
1.5399917926267E13,3.500946,3.1421204,9.462753
1.5399922961667E13,3.4006195,3.146515,9.068024
1.5399927997068E13,3.287735,3.2298584,8.645462
1.5399933032468E13,3.309494,3.2897491,8.468903
1.5399938067868E13,3.4072418,3.3033295,8.475174
1.5399943103269E13,3.5155182,3.3354034,8.623001
1.5399948138669E13,3.497406,3.2640686,8.922119
1.539995317407E13,3.306244,3.105301,9.075256
1.539995820947E13,3.0119019,3.06781,9.261032
1.539996324487E13,2.8403778,3.1492767,9.275925
1.5399968280271E13,2.8350677,3.1961365,9.204269
1.5399973315671E13,2.8701477,3.2872467,9.046173
1.5399978351072E13,2.886261,3.2827148,8.96405
1.5399983386472E13,2.8681946,3.13414,9.020294
1.5399988421872E13,2.9116821,3.0573883,9.1319275
1.5399993457273E13,3.0102997,3.1248016,9.150009
1.5399998492673E13,3.041687,3.2094269,9.062622
1.5400003528074E13,2.998108,3.2095184,8.892426
1.5400008563474E13,3.0164948,3.2250671,8.736862
1.5400013598874E13,3.0828705,3.2153473,8.678848
1.5400018634275E13,3.151291,3.2315369,8.656464
1.5400023669675E13,3.0386963,3.2276154,8.607178
1.5400028705076E13,2.7882843,3.267685,8.621124
1.5400033740476E13,2.5759888,3.335785,8.69046
1.5400038775876E13,2.763382,3.4187164,8.7765045
1.5400043811277E13,3.053131,3.4069824,8.807938
1.5400048846677E13,3.1921082,3.3505554,8.760559
1.5400053882077E13,3.2164307,3.437683,8.91423
1.5400058917478E13,3.1404877,3.5533142,9.026825
1.5400063952878E13,3.1682587,3.8018951,9.18512
1.5400068988279E13,3.1443481,3.8534698,9.109894
1.5400074023679E13,3.1366425,3.6899414,8.983231
1.5400079059079E13,3.0794373,3.5831604,8.979294
1.540008409448E13,3.015091,3.490326,8.723114
1.540008912988E13,2.8804321,3.490326,8.509888
1.5400094165281E13,2.815216,3.471283,8.28772
1.5400099200681E13,2.8194427,3.4702606,8.118469
1.5400104236081E13,2.8911133,3.4489746,8.026093
1.5400109271482E13,2.9869232,3.374939,8.089462
1.5400114306882E13,3.0969086,3.3428955,8.263138
1.5400119342283E13,3.2220001,3.3726501,8.309967
1.5400124377683E13,3.3713684,3.5064545,8.3111725
1.5400129413083E13,3.4304962,3.5817413,8.384476
1.5400134448484E13,3.4562836,3.6981049,8.424301
1.5400139483884E13,3.472168,3.788498,8.387817
1.5400144519284E13,3.4013367,3.8682098,8.29512
1.5400149554685E13,3.3115692,3.9208832,8.3632965
1.5400154590085E13,3.1901398,3.933609,8.507294
1.5400159625486E13,3.1282654,3.9451904,8.684265
1.5400164660886E13,3.1563568,3.9972534,8.942398
1.5400169696286E13,3.286972,4.077545,9.05545
1.5400174731687E13,3.3942719,4.109482,9.146072
1.5400179767087E13,3.3960266,4.0288544,9.045853
1.5400184802488E13,3.3617554,3.8970184,8.857834
1.5400189837888E13,3.2238312,3.7827911,8.680542
1.5400194873288E13,3.0759277,3.7555695,8.525162
1.5400199908689E13,3.073532,3.7866516,8.371429
1.5400204944089E13,3.1677094,3.7924957,8.255188
1.540020997949E13,3.2286072,3.756134,8.112061
1.540021501489E13,3.2288666,3.6395264,7.9079437
1.540022005029E13,3.2413788,3.5637665,7.6594086
1.5400225085691E13,3.204193,3.6516266,7.4578094
1.5400230121091E13,3.1833344,3.7846375,7.417099
1.5400235156492E13,3.154068,3.8729095,7.5379333
1.5400240191892E13,3.0930786,3.9024658,7.7787323
1.5400245227292E13,3.07135,3.906662,8.12236
1.5400250262693E13,3.0401611,3.9449768,8.462753
1.5400255298093E13,2.9942322,4.0004425,8.739365
1.5400260333493E13,2.9167175,4.056381,8.929337
1.5400265368894E13,2.8783417,4.054291,8.994827
1.5400270404294E13,2.8877563,3.9801788,8.917557
1.5400275439695E13,2.9429016,3.930603,8.773331
1.5400280475095E13,3.054306,3.9529877,8.53772
1.5400285510495E13,3.1435547,3.986496,8.182434
1.5400290545896E13,3.1949615,4.0214996,7.934906
1.5400295581296E13,3.266388,3.9943695,7.8486176
1.5400300616697E13,3.4501953,3.9566345,7.7640686
1.5400305652097E13,3.5798492,3.9363403,7.690918
1.5400310687497E13,3.5894165,3.936386,7.68132
1.5400315722898E13,3.4883575,4.0144653,7.7487335
1.5400320758298E13,3.32341,4.055725,7.7704926
1.5400325793699E13,3.0892181,4.0210266,7.965027
1.5400330829099E13,2.8864288,3.9511566,8.164734
1.5400335864499E13,2.970459,3.9539948,8.21106
1.54003408999E13,3.0675354,4.02005,8.216476
1.54003459353E13,3.1732178,4.0804596,8.182343
1.5400350970701E13,3.3500824,4.177841,8.049149
1.5400356006101E13,3.570984,4.2568054,8.014053
1.5400361041501E13,3.64328,4.2816467,7.9200897
1.5400366076902E13,3.5499268,4.290985,7.918625
1.5400371112302E13,3.4261475,4.2620544,7.9569244
1.5400376147702E13,3.2740784,4.2506256,7.973175
1.5400381183103E13,3.1691437,4.245453,8.016815
1.5400386218503E13,3.0646515,4.2131195,8.052185
1.5400391253904E13,2.9360352,4.1075287,8.170319
1.5400396289304E13,2.8453217,4.0708466,8.267883
1.5400401324704E13,2.7853851,4.1625824,8.3909
1.5400406360105E13,2.870163,4.112137,8.414337
1.5400411395505E13,2.9946747,4.0054016,8.37825
1.5400416430906E13,3.2183075,3.9977417,8.346603
1.5400421466306E13,3.6316833,4.054474,8.108078
1.5400426501706E13,3.8739624,4.1337433,7.832306
1.5400431537107E13,4.0254364,4.193405,7.6631317
1.5400436572507E13,4.062042,4.2298737,7.482147
1.5400441607908E13,3.9949493,4.2687683,7.488098
1.5400446643308E13,3.9343567,4.3136597,7.555435
1.5400451678708E13,3.6939545,4.3150177,7.823227
1.5400456714109E13,3.5319672,4.348282,8.054626
1.5400461749509E13,3.3888855,4.314987,8.257248
1.5400466784909E13,3.252533,4.31456,8.389114
1.540047182031E13,3.073822,4.234085,8.434189
1.540047685571E13,2.8751526,4.0994873,8.509247
1.5400481891111E13,2.8470764,4.1050873,8.473511
1.5400486926511E13,2.95961,4.142105,8.483383
1.5400491961911E13,3.122284,4.1334076,8.522049
1.5400496997312E13,3.2976074,4.108368,8.601501
1.5400502032712E13,3.3570557,4.1305847,8.581512
1.5400507068113E13,3.3592682,4.196808,8.560165
1.5400512103513E13,3.3632813,4.2279816,8.536804
1.5400517138913E13,3.4133606,4.2583313,8.476074
1.5400522174314E13,3.4145508,4.2201385,8.360016
1.5400527209714E13,3.4703674,4.153778,8.193527
1.5400532245115E13,3.4668884,4.163101,8.044464
1.5400537280515E13,3.3317719,4.1372375,8.001907
1.5400542315915E13,3.1303864,4.086136,8.000458
1.5400547351316E13,3.1426544,4.0520935,8.094574
1.5400552386716E13,3.2471619,4.0280304,8.177612
1.5400557422117E13,3.3090057,4.0026245,8.245087
1.5400562457517E13,3.2924194,4.051941,8.29834
1.5400567492917E13,3.2395477,4.115097,8.484802
1.5400572528318E13,3.1620636,4.1792603,8.684814
1.5400577563718E13,3.1442719,4.2421722,8.81488
1.5400582599118E13,3.1530304,4.298462,8.823868
1.5400587634519E13,3.1827545,4.3600006,8.7925415
1.5400592669919E13,3.226883,4.36528,8.695419
1.540059770532E13,3.290329,4.2763214,8.526077
1.540060274072E13,3.33992,4.1879883,8.312851
1.540060777612E13,3.3212585,4.142212,8.106415
1.5400612811521E13,3.368103,4.077957,7.877701
1.5400617846921E13,3.4779053,4.039871,7.7360687
1.5400622882322E13,3.611496,4.123474,7.6795197
1.5400627917722E13,3.797058,4.319931,7.7273254
1.5400632953122E13,3.8926697,4.482788,7.9871826
1.5400637988523E13,3.9057007,4.55249,8.265106
1.5400643023923E13,3.8296814,4.5336914,8.455887
1.5400648059324E13,3.7128143,4.468994,8.566925
1.5400653094724E13,3.6275177,4.438965,8.607819
1.5400658130124E13,3.4786072,4.4166565,8.625992
1.5400663165525E13,3.33255,4.372101,8.575668
1.5400668200925E13,3.2622528,4.3128357,8.491699
1.5400673236326E13,3.1984558,4.2225037,8.35379
1.5400678271726E13,3.1511993,4.2107697,8.116455
1.5400683307126E13,3.182907,4.2579193,7.853943
1.5400688342527E13,3.2974548,4.3760376,7.746811
1.5400693377927E13,3.4246979,4.384842,7.699875
1.5400698413327E13,3.6026459,4.366806,7.537262
1.5400703448728E13,3.7048035,4.377411,7.431244
1.5400708484128E13,3.7256622,4.382553,7.423279
1.5400713519529E13,3.6560822,4.38855,7.503189
1.5400718554929E13,3.5840302,4.357849,7.6175995
1.5400723590329E13,3.4791565,4.2669983,7.6240234
1.540072862573E13,3.4925537,4.220566,7.7473297
1.540073366113E13,3.5432281,4.342987,8.039856
1.5400738696531E13,3.6615143,4.445984,8.3354645
1.5400743731931E13,3.8385162,4.493393,8.584274
1.5400748767331E13,3.8985138,4.4906464,8.751877
1.5400753802732E13,3.8027039,4.4673004,8.685135
1.5400758838132E13,3.5382843,4.510376,8.651581
1.5400763873533E13,3.3624115,4.398636,8.51445
1.5400768908933E13,3.140808,4.446762,8.428619
1.5400773944333E13,3.0555115,4.370453,8.293961
1.5400778979734E13,2.9126587,4.2304535,7.990143
1.5400784015134E13,2.7811127,4.1646576,7.8963013
1.5400789050534E13,2.720871,4.180893,7.952652
1.5400794085935E13,2.7454681,4.2227936,8.0952
1.5400799121335E13,2.8934937,4.2431335,8.193771
1.5400804156736E13,3.1038666,4.24942,8.192825
1.5400809192136E13,3.4317017,4.2460175,8.155579
1.5400814227536E13,3.684311,4.273987,8.072769
1.5400819262937E13,3.7878265,4.285568,7.959854
1.5400824298337E13,3.8372498,4.252014,7.795639
1.5400829333738E13,3.7733612,4.2829437,7.610016
1.5400834369138E13,3.7277374,4.321106,7.3864594
1.5400839404538E13,3.674881,4.3491516,7.203766
1.5400844439939E13,3.5478363,4.3945923,7.327591
1.5400849475339E13,3.4266357,4.4025726,7.6313324
1.540085451074E13,3.3596497,4.397751,8.002426
1.540085954614E13,3.3555603,4.389511,8.268158
1.540086458154E13,3.3923187,4.435028,8.469803
1.5400869616941E13,3.3677368,4.4729614,8.562103
1.5400874652341E13,3.2674866,4.445984,8.496613
1.5400879687742E13,3.187439,4.377945,8.306931
1.5400884723142E13,3.1745605,4.330551,8.06311
1.5400889758542E13,3.135147,4.2942657,7.9050446
1.5400894793943E13,3.1013336,4.2534637,7.890045
1.5400899829343E13,3.2315826,4.314911,7.8892975
1.5400904864743E13,3.4091644,4.3666687,7.7845154
1.5400909900144E13,3.5785217,4.451309,7.736328
1.5400914935544E13,3.7051544,4.501297,7.797989
1.5400919970945E13,3.6622467,4.5021057,7.839096
1.5400925006345E13,3.5176392,4.4717255,7.9150543
1.5400930041745E13,3.382904,4.4017944,8.034042
1.5400935077146E13,3.2816315,4.3898773,8.129272
1.5400940112546E13,3.2222595,4.3460693,8.158066
1.5400945147947E13,3.2058105,4.2678986,8.167252
1.5400950183347E13,3.248993,4.2249756,8.108383
1.5400955218747E13,3.3263245,4.2309265,7.9669495
1.5400960254148E13,3.442154,4.2982635,7.8913574
1.5400965289548E13,3.6343231,4.4436493,7.9899445
1.5400970324949E13,3.8199768,4.546814,8.238358
1.5400975360349E13,3.9574585,4.60585,8.386658
1.5400980395749E13,4.0200195,4.625763,8.444397
1.540098543115E13,4.0677643,4.614334,8.398499
1.540099046655E13,4.064331,4.5746765,8.258881
1.5400995501951E13,3.9774933,4.49617,8.071274
1.5401000537351E13,3.8688354,4.4116516,7.8836975
1.5401005572751E13,3.7914886,4.324829,7.702896
1.5401010608152E13,3.7643585,4.211975,7.6013184
1.5401015643552E13,3.7387543,4.1135254,7.5838623
1.5401020678952E13,3.6667175,4.130142,7.656296
1.5401025714353E13,3.606247,4.230255,7.7477875
1.5401030749753E13,3.5501251,4.313507,7.8062897
1.5401035785154E13,3.51622,4.3287506,7.861847
1.5401040820554E13,3.552063,4.3421326,7.970566
1.5401045855954E13,3.5337067,4.397812,8.215454
1.5401050891355E13,3.5284424,4.4425964,8.350021
1.5401055926755E13,3.4658508,4.417877,8.4171295
1.5401060962156E13,3.3060303,4.3006897,8.418991
1.5401065997556E13,3.1991577,4.262085,8.417526
1.5401071032956E13,3.087906,4.322998,8.357574
1.5401076068357E13,2.9520264,4.314682,8.389832
1.5401081103757E13,2.9301605,4.3050995,8.316681
1.5401086139158E13,3.0542603,4.324112,8.21608
1.5401091174558E13,3.1161957,4.283661,8.174759
1.5401096209958E13,3.1968384,4.339432,8.034332
1.5401101245359E13,3.1668549,4.374344,8.029282
1.5401106280759E13,3.0190887,4.3874664,8.001724
1.5401111316159E13,3.0010529,4.305435,7.977463
1.5401116342104E13,2.9915771,4.3167877,7.821884
1.5401121377504E13,3.0291748,4.3964386,7.734009
1.5401126412905E13,3.1474915,4.4842834,7.848053
1.5401131448305E13,3.317093,4.5869446,8.028809
1.5401136483705E13,3.5417175,4.6713104,8.188843
1.5401141519106E13,3.664688,4.636627,8.227661
1.5401146554506E13,3.744873,4.5961,8.287903
1.5401151589907E13,3.7480927,4.587784,8.277588
1.5401156625307E13,3.6539154,4.5977325,8.279144
1.5401161660707E13,3.5611267,4.5039825,8.254623
1.5401166696108E13,3.463379,4.425888,8.178711
1.5401171731508E13,3.4674377,4.4455414,8.029541
1.5401176766909E13,3.442276,4.4794006,7.89888
1.5401181802309E13,3.2892303,4.505478,7.7802124
1.5401186837709E13,3.1284943,4.4978943,7.7413177
1.540119187311E13,2.9468842,4.5338287,7.844513
1.540119690851E13,2.8863068,4.5625,8.028381
1.5401201943911E13,2.881424,4.601898,8.209
1.5401206979311E13,3.0228882,4.633194,8.279999
1.5401212014711E13,3.1332855,4.6489563,8.31395
1.5401217050112E13,3.1676178,4.5540924,8.336487
1.5401222085512E13,3.1326141,4.498123,8.309845
1.5401227120912E13,3.102417,4.3955383,8.122131
1.5401232156313E13,3.199234,4.2933044,8.000183
1.5401237191713E13,3.4066467,4.1957703,7.8647766
1.5401242227114E13,3.602768,4.158661,7.6316223
1.5401247262514E13,3.6284332,4.2005005,7.5219727
1.5401252297914E13,3.5604553,4.218231,7.495468
1.5401257333315E13,3.4862976,4.260254,7.479553
1.5401262368715E13,3.4490662,4.295822,7.483368
1.5401267404116E13,3.3823853,4.343155,7.622284
1.5401272439516E13,3.289215,4.375107,7.8816223
1.5401277474916E13,3.210083,4.4014587,8.11528
1.5401282510317E13,3.1328278,4.441269,8.417053
1.5401287545717E13,3.1427765,4.5105743,8.710266
1.5401292581118E13,3.2683868,4.58197,8.837189
1.5401297616518E13,3.4033356,4.6106415,8.879959
1.5401302651918E13,3.4691772,4.591934,8.758163
1.5401307687319E13,3.5132751,4.5310974,8.591293
1.5401312722719E13,3.6035156,4.4910736,8.349274
1.540131775812E13,3.747818,4.491806,8.001602
1.540132279352E13,3.838501,4.468033,7.7730713
1.540132782892E13,3.8385925,4.412018,7.6348724
1.5401332864321E13,3.8247986,4.3773346,7.5057526
1.5401337899721E13,3.8080444,4.3569946,7.4048004
1.5401342935121E13,3.7641296,4.3160553,7.3291626
1.5401347970522E13,3.668747,4.3115845,7.4061737
1.5401353005922E13,3.5571136,4.3267975,7.480179
1.5401358041323E13,3.4512177,4.330597,7.602127
1.5401363076723E13,3.3437805,4.355942,7.6916046
1.5401368112123E13,3.3287506,4.3951874,7.878311
1.5401373147524E13,3.305664,4.4160004,8.082184
1.5401378182924E13,3.342163,4.4653625,8.221115
1.5401383218325E13,3.3159485,4.529846,8.398773
1.5401388253725E13,3.3349,4.621338,8.606064
1.5401393289125E13,3.3930054,4.6595,8.702072
1.5401398324526E13,3.5060883,4.6423035,8.650452
1.5401403359926E13,3.6356354,4.6081696,8.437729
1.5401408395327E13,3.7018738,4.521927,8.121643
1.5401413430727E13,3.7347412,4.3984833,7.810608
1.5401418466127E13,3.8155212,4.3515472,7.4421234
1.5401423501528E13,3.9432373,4.3789825,7.2331696
1.5401428536928E13,3.9437866,4.3689575,7.163086
1.5401433572328E13,3.8063354,4.353256,7.170944
1.5401438607729E13,3.7491455,4.340912,7.3346405
1.5401443643129E13,3.7368774,4.4622955,7.5816956
1.540144867853E13,3.8350067,4.4869995,7.793396
1.540145371393E13,3.8364258,4.49704,8.004272
1.540145874933E13,3.8144836,4.523514,8.148331
1.5401463784731E13,3.8598938,4.621048,8.227051
1.5401468820131E13,3.8342896,4.625351,8.221756
1.5401473855532E13,3.7495728,4.6091003,8.19664
1.5401478890932E13,3.7198334,4.6096344,8.14064
1.5401483926332E13,3.7207794,4.6164856,7.9987335
1.5401488961733E13,3.7003632,4.513565,8.0004425
1.5401493997133E13,3.6441345,4.4620667,7.9076996
1.5401499032534E13,3.5970764,4.4176483,7.758255
1.5401504067934E13,3.5220184,4.371353,7.6345673
1.5401509103334E13,3.4710999,4.3792114,7.5622864
1.5401514138735E13,3.4910889,4.414978,7.5419617
1.5401519174135E13,3.584137,4.411865,7.6419373
1.5401524209536E13,3.7961578,4.4811096,7.735779
1.5401529244936E13,3.9182587,4.5770874,7.852951
1.5401534280336E13,3.9200897,4.6198273,7.980377
1.5401539315737E13,3.911499,4.6902924,8.108353
1.5401544351137E13,3.9040833,4.7032623,8.127899
1.5401549386537E13,3.8961945,4.7244873,8.118591
1.5401554421938E13,3.9102478,4.7487793,8.169144
1.5401559457338E13,3.8562012,4.6934357,8.173889
1.5401564492739E13,3.733017,4.5974426,8.162506
1.5401569528139E13,3.6551208,4.5015106,8.043045
1.5401574563539E13,3.6650085,4.4056244,7.964508
1.540157959894E13,3.6745605,4.359833,7.7814484
1.540158463434E13,3.645813,4.339508,7.6108856
1.5401589669741E13,3.5349731,4.3451996,7.5107727
1.5401594705141E13,3.5962677,4.4316254,7.473465
1.5401599740541E13,3.8232727,4.4828186,7.5676117
1.5401604775942E13,4.017166,4.562851,7.673935
1.5401609811342E13,4.1117554,4.6049957,7.8120575
1.5401614846743E13,4.0392456,4.6212616,7.9874725
1.5401619882143E13,3.9309082,4.6468506,8.099869
1.5401624917543E13,3.8479614,4.70195,8.160538
1.5401629952944E13,3.787201,4.693939,8.154114
1.5401634988344E13,3.715042,4.604965,8.092972
1.5401640023745E13,3.6051636,4.553604,8.067978
1.5401645059145E13,3.5763855,4.507141,8.040329
1.5401650094545E13,3.6221008,4.439789,8.022949
1.5401655129946E13,3.6061554,4.309204,7.9989166
1.5401660165346E13,3.4971466,4.1806946,7.806366
1.5401665200746E13,3.3296356,4.159134,7.530411
1.5401670236147E13,3.1586914,4.171112,7.3434296
1.5401675271547E13,3.0133972,4.2163696,7.3186646
1.5401680306948E13,3.0497131,4.297348,7.403137
1.5401685342348E13,3.1637268,4.3542786,7.519943
1.5401690377748E13,3.2531433,4.395233,7.719986
1.5401695413149E13,3.2654572,4.4135895,7.9427643
1.5401700448549E13,3.2414398,4.3974304,8.071136
1.540170548395E13,3.189209,4.3993683,8.135422
1.540171051935E13,3.0761414,4.371994,8.073196
1.540171555475E13,2.9833527,4.310501,8.088348
1.5401720590151E13,3.021469,4.2320557,8.1501465
1.5401725625551E13,3.2107239,4.2384033,8.165207
1.5401730660952E13,3.4388123,4.3182526,8.206741
1.5401735696352E13,3.6885376,4.387207,8.26329
1.5401740731752E13,3.8368225,4.432144,8.272797
1.5401745767153E13,4.0990906,4.4575653,8.241257
1.5401750802553E13,4.2680206,4.5249786,8.192596
1.5401755837953E13,4.144623,4.4851227,7.9946747
1.5401760873354E13,3.8291168,4.4669647,7.7935333
1.5401765908754E13,3.497635,4.3681183,7.6486664
1.5401770944155E13,3.3033295,4.3565063,7.5473175
1.5401775979555E13,3.168213,4.3481903,7.43161
1.5401781014955E13,3.01503,4.355896,7.4763794
1.5401786050356E13,2.9802399,4.420761,7.5419006
1.5401791085756E13,2.9522858,4.446335,7.702057
1.5401796121157E13,2.9485931,4.4151306,7.8848114
1.5401801156557E13,2.9461823,4.4046173,7.9472046
1.5401806191957E13,2.8869934,4.461151,8.073975
1.5401811227358E13,2.9946442,4.4641113,8.105225
1.5401816262758E13,3.1450195,4.5000153,8.026672
1.5401821298159E13,3.2759857,4.4377136,7.7213745
1.5401826333559E13,3.4424438,4.4385223,7.489853
1.5401831368959E13,3.5552368,4.458191,7.164612
1.540183640436E13,3.5173187,4.515686,6.928116
1.540184143976E13,3.5480957,4.5064697,6.8522034
1.5401846475161E13,3.5943909,4.478256,6.840851
1.5401851510561E13,3.5393066,4.4729614,6.9898224
1.5401856545961E13,3.472641,4.4302216,7.292465
1.5401861581362E13,3.4553528,4.503998,7.623642
1.5401866616762E13,3.410797,4.496063,7.9629974
1.5401871652162E13,3.3088531,4.4556274,8.202438
1.5401876687563E13,3.2031708,4.4013977,8.26619
1.5401881722963E13,3.2034302,4.4026947,8.331757
1.5401886758364E13,3.278061,4.412842,8.358551
1.5401891793764E13,3.35495,4.378662,8.275253
1.5401896829164E13,3.505066,4.3841248,8.07634
1.5401901864565E13,3.6037903,4.3746033,7.961914
1.5401906899965E13,3.7029877,4.379242,7.915085
1.5401911935366E13,3.752533,4.394165,7.8932953
1.5401916970766E13,3.8411255,4.440872,7.915863
1.5401922006166E13,4.004883,4.469055,7.927582
1.5401927041567E13,4.147049,4.4666443,7.863327
1.5401932076967E13,4.2001343,4.536682,7.773941
1.5401937112368E13,4.1495056,4.534958,7.745758
1.5401942147768E13,4.0890656,4.4942627,7.8321686
1.5401947183168E13,4.054062,4.4868774,7.909363
1.5401952218569E13,4.039139,4.4592896,8.06189
1.5401957253969E13,3.9385986,4.4465027,8.221283
1.540196228937E13,3.7426758,4.3998413,8.316345
1.540196732477E13,3.5335846,4.275055,8.270248
1.540197236017E13,3.2938843,4.1589203,8.126694
1.5401977395571E13,3.219696,4.091934,8.045044
1.5401982430971E13,3.2341003,4.0782623,8.002213
1.5401987466371E13,3.2170105,4.0564117,7.986557
1.5401992501772E13,3.1473694,4.0214844,7.935608
1.5401997537172E13,3.0449219,3.9794922,7.8224335
1.5402002572573E13,2.9179993,3.943161,7.7308197
1.5402007607973E13,2.879364,3.9580994,7.729492
1.5402012643373E13,2.9520264,4.033188,7.7813416
1.5402017678774E13,3.0503998,4.115555,7.8194885
1.5402022714174E13,3.193985,4.2071686,7.897217
1.5402027749575E13,3.3720703,4.2511444,7.9919434
1.5402032784975E13,3.4722748,4.25943,8.057983
1.5402037820375E13,3.4990234,4.2647552,8.157394
1.5402042855776E13,3.5031433,4.2145996,8.1285095
1.5402047891176E13,3.4264832,4.1330566,8.033463
1.5402052926577E13,3.3974304,4.1145477,7.924011
1.5402057961977E13,3.431839,4.066437,7.858322
1.5402062997377E13,3.484146,3.936798,7.7792664
1.5402068032778E13,3.584961,3.8991241,7.7339783
1.5402073068178E13,3.72818,3.8997498,7.6481934
1.5402078103578E13,3.7962036,3.9052582,7.6482086
1.5402083138979E13,3.8003082,3.9548187,7.618164
1.5402088174379E13,3.6679535,3.9679413,7.694687
1.540209320978E13,3.6918793,4.038254,7.9220734
1.540209824518E13,3.8868408,4.105728,8.174652
1.540210328058E13,4.0371857,4.1002502,8.231674
1.5402108315981E13,4.0414124,4.0278015,8.228119
1.5402113351381E13,3.9054413,3.9796753,8.201996
1.5402118386782E13,3.8116302,3.987915,8.143799
1.5402123422182E13,3.7021637,3.8699799,8.125916
1.5402128457582E13,3.5606232,3.8503723,8.015945
1.5402133492983E13,3.3619843,3.7965088,7.8592987
1.5402138528383E13,3.2134705,3.7746277,7.76091
1.5402143563784E13,3.1376953,3.8139038,7.7027435
1.5402148599184E13,3.1108856,3.835022,7.7634735
1.5402153634584E13,3.1526947,3.8354797,7.8758087
1.5402158669985E13,3.1841736,3.8330994,7.9628754
1.5402163705385E13,3.1569672,3.814087,8.062988
1.5402168740786E13,3.1016083,3.8159485,8.065369
1.5402173776186E13,3.0477448,3.8002472,7.9127655
1.5402178811586E13,2.9381104,3.7850952,7.91304
1.5402183846987E13,2.936264,3.7410583,7.9187775
1.5402188882387E13,3.0967255,3.7163086,7.9733124
1.5402193917787E13,3.2715607,3.6591492,8.078873
1.5402198953188E13,3.4231262,3.61203,8.024887
1.5402203988588E13,3.468811,3.5986176,7.9809723
1.5402209023989E13,3.4433289,3.656662,7.8960266
1.5402214059389E13,3.3792877,3.6768188,7.9322815
1.5402219094789E13,3.3424988,3.7110596,7.9888
1.540222413019E13,3.3620758,3.6846313,8.032974
1.540222916559E13,3.4545135,3.744339,8.122009
1.5402234200991E13,3.6078186,3.819275,8.092667
1.5402239236391E13,3.7197266,3.9708252,8.197952
1.5402244271791E13,3.861374,3.967331,8.32843
1.5402249307192E13,3.984848,3.912262,8.398483
1.5402254342592E13,4.0599823,3.9035034,8.41098
1.5402259377993E13,4.041992,3.8605957,8.434769
1.5402264413393E13,3.9466553,3.8017883,8.40863
1.5402269448793E13,3.846939,3.727005,8.385788
1.5402274484194E13,3.6882172,3.6838837,8.3484955
1.5402279519594E13,3.587677,3.6851501,8.344391
1.5402284554995E13,3.5252228,3.6544037,8.342636
1.5402289590395E13,3.507248,3.6372833,8.369858
1.5402294625795E13,3.4461517,3.648285,8.400864
1.5402299661196E13,3.31427,3.6526337,8.427856
1.5402304696596E13,3.1634674,3.6130676,8.502274
1.5402309731996E13,3.054306,3.494873,8.599182
1.5402314767397E13,2.970459,3.420868,8.680832
1.5402319802797E13,2.939331,3.4206085,8.787842
1.5402324838198E13,2.9618378,3.3686066,8.921371
1.5402329873598E13,2.9746094,3.3565369,8.900452
1.5402334908998E13,2.9986115,3.359253,8.810043
1.5402339944399E13,3.0767822,3.3713837,8.7834015
1.5402344979799E13,3.2423248,3.4516296,8.809982
1.54023500152E13,3.4296875,3.5532227,8.889984
1.54023550506E13,3.5901337,3.5916595,8.966782
1.5402360086E13,3.6403809,3.58049,8.9865265
1.5402365121401E13,3.6447144,3.645813,8.940308
1.5402370156801E13,3.7289124,3.6979675,8.785049
1.5402375192202E13,3.887497,3.7296295,8.635666
1.5402380227602E13,3.9722137,3.6973877,8.595505
1.5402385263002E13,3.965042,3.6276703,8.589706
1.5402390298403E13,3.9624329,3.5513,8.643707
1.5402395333803E13,4.057266,3.5124054,8.729233
1.5402400369203E13,4.047943,3.477356,8.7901
1.5402405404604E13,3.8514557,3.4574127,8.829041
1.5402410440004E13,3.6026154,3.3893585,8.9279785
1.5402415475405E13,3.3842926,3.3688965,8.934799
1.5402420510805E13,3.2177277,3.4021912,9.0017395
1.5402425546205E13,3.0291138,3.321228,9.15242
1.5402430581606E13,2.731598,3.248581,9.108353
1.5402435617006E13,2.3496552,3.1773224,8.952377
1.5402440652407E13,2.0966644,3.0994568,8.865738
1.5402445687807E13,2.0545654,3.0343475,8.821503
1.5402450723207E13,2.3005524,3.055542,8.973938
1.5402455758608E13,2.6751251,3.1807556,9.168716
1.5402460794008E13,3.0819244,3.3133698,9.362869
1.5402465829409E13,3.4289093,3.4644775,9.463898
1.5402470864809E13,3.5644836,3.4180908,9.503998
1.5402475900209E13,3.6183472,3.3789215,9.484421
1.540248093561E13,3.6484375,3.3410187,9.470612
1.540248597101E13,3.5948792,3.2687378,9.384781
1.5402491006411E13,3.579895,3.3049316,9.272812
1.5402496041811E13,3.540329,3.3024445,9.164154
1.5402501077211E13,3.577774,3.278473,9.088837
1.5402506112612E13,3.5793304,3.2571716,9.010727
1.5402511148012E13,3.5092316,3.24263,8.98616
1.5402516183412E13,3.334488,3.2187042,8.939575
1.5402521218813E13,3.0543976,3.115799,8.878967
1.5402526254213E13,2.767807,3.157425,8.998581
1.5402531289614E13,2.6406097,3.1641235,9.090073
1.5402536325014E13,2.5534973,3.224533,9.264694
1.5402541360414E13,2.5183563,3.236969,9.398544
1.5402546395815E13,2.3924408,3.2637024,9.491333
1.5402551431215E13,2.195877,3.1911316,9.500748
1.5402556466616E13,2.1126251,3.1177826,9.431366
1.5402561502016E13,2.1545563,3.1659393,9.5225525
1.5402566537416E13,2.31279,3.2598267,9.490311
1.5402571572817E13,2.4078064,3.2582703,9.4053955
1.5402576608217E13,2.3835144,3.2302246,9.283783
1.5402581643618E13,2.406952,3.186493,9.177475
1.5402586679018E13,2.3445435,3.2065582,9.01355
1.5402591714418E13,2.25177,3.1939697,8.942978
1.5402596749819E13,2.2335358,3.1525269,8.952011
1.5402601785219E13,2.3248138,3.182129,9.033554
1.540260682062E13,2.59758,3.193695,9.078262
1.540261185602E13,2.95224,3.1694489,9.098114
1.540261689142E13,3.1686554,3.2031708,9.142654
1.5402621926821E13,3.272461,3.3112335,9.222244
1.5402626962221E13,3.2458496,3.4163055,9.503891
1.5402631997621E13,3.1178741,3.3434448,9.800903
1.5402637033022E13,2.9319916,3.217514,9.947235
1.5402642068422E13,2.7702484,3.1499329,9.917175
1.5402647103823E13,2.661377,3.1020203,9.866882
1.5402652139223E13,2.560028,3.0823975,9.791809
1.5402657174623E13,2.448166,3.0377197,9.693436
1.5402662210024E13,2.3180847,3.02977,9.59758
1.5402667245424E13,2.217102,3.008957,9.516968
1.5402672280825E13,2.180664,3.0056152,9.450241
1.5402677316225E13,2.1822357,3.0118713,9.434967
1.5402682351625E13,2.2107544,2.985199,9.418396
1.5402687387026E13,2.1743927,2.8377228,9.472244
1.5402692422426E13,2.1533508,2.754959,9.481796
1.5402697457827E13,2.3349304,2.8921204,9.377563
1.5402702493227E13,2.5594788,3.0238495,9.265213
1.5402707528627E13,2.596283,2.9583435,9.197586
1.5402712564028E13,2.4953613,2.8278656,9.130585
1.5402717599428E13,2.3566284,2.7992554,9.071594
1.5402722634828E13,2.2718506,2.8926544,9.013153
1.5402727670229E13,2.2452545,2.978424,9.035156
1.5402732705629E13,2.3147583,2.9682617,9.153778
1.540273774103E13,2.4042816,2.9655762,9.213898
1.540274277643E13,2.4716797,3.0079956,9.220551
1.540274781183E13,2.437027,2.9799347,9.257675
1.5402752847231E13,2.4179688,2.8889618,9.30806
1.5402757882631E13,2.3805237,2.876709,9.270508
1.5402762918032E13,2.4336548,2.8114777,9.359314
1.5402767953432E13,2.4830475,2.8421478,9.378326
1.5402772988832E13,2.6467133,2.8684387,9.341248
1.5402778024233E13,2.7597656,2.913559,9.344574
1.5402783059633E13,2.7488708,2.8583527,9.408539
1.5402788095034E13,2.6649017,2.8653412,9.426346
1.5402793130434E13,2.5914764,2.8499298,9.409225
1.5402798165834E13,2.5259094,2.8822327,9.494186
1.5402803201235E13,2.3945465,2.9008484,9.63562
1.5402808236635E13,2.29216,2.8467712,9.616531
1.5402813272036E13,2.1250916,2.8652496,9.551636
1.5402818307436E13,2.103485,2.822174,9.485931
1.5402823342836E13,2.034317,2.7431946,9.390564
1.5402828378237E13,2.0681152,2.670456,9.204086
1.5402833413637E13,2.1433258,2.5779114,9.07959
1.5402838449037E13,2.2641144,2.6665344,8.945419
1.5402843484438E13,2.4145508,2.7265015,8.764587
1.5402848519838E13,2.4873962,2.7680664,8.7556
1.5402853555239E13,2.448883,2.6933594,8.611237
1.5402858590639E13,2.3437805,2.6237488,8.628189
1.5402863626039E13,2.1777802,2.520523,8.715149
1.540286866144E13,2.0992737,2.580017,8.814697
1.540287369684E13,1.9851379,2.6824646,8.874435
1.5402878732241E13,1.8912201,2.7533417,9.027145
1.5402883767641E13,1.66539,2.6919098,9.294769
1.5402888803041E13,1.6351166,2.6518097,9.430054
1.5402893838442E13,1.6799316,2.7438965,9.487015
1.5402898873842E13,1.8166199,2.7899017,9.584061
1.5402903909243E13,1.8243256,2.772232,9.409775
1.5402908944643E13,1.8205719,2.6786957,9.35849
1.5402913980043E13,1.8339844,2.633377,9.224396
1.5402919015444E13,1.9052277,2.6053314,9.057724
1.5402924050844E13,1.9903259,2.599594,8.968109
1.5402929086245E13,2.0665436,2.633789,8.913666
1.5402934121645E13,2.119278,2.6151428,8.942184
1.5402939157045E13,2.1900482,2.6257782,9.038391
1.5402944192446E13,2.302826,2.6975708,9.215912
1.5402949227846E13,2.3378906,2.7546234,9.3602295
1.5402954263246E13,2.31958,2.7122345,9.451965
1.5402959298647E13,2.187317,2.6622467,9.496094
1.5402964334047E13,2.0792542,2.6842957,9.397446
1.5402969369448E13,1.9891357,2.6840515,9.2966
1.5402974404848E13,2.0388641,2.6815338,9.233871
1.5402979440248E13,2.1296692,2.6548157,9.210907
1.5402984475649E13,2.1243896,2.569809,9.297623
1.5402989511049E13,2.132309,2.431015,9.329208
1.540299454645E13,2.103775,2.3584595,9.362427
1.540299958185E13,2.0676727,2.269806,9.424698
1.540300461725E13,2.020874,2.2789001,9.425568
1.5403009652651E13,1.9598541,2.3530884,9.344528
1.5403014688051E13,1.877594,2.3310852,9.187988
1.5403019723452E13,1.7592926,2.335785,9.102554
1.5403024758852E13,1.6999512,2.4218597,9.139633
1.5403029794252E13,1.8327332,2.5000305,9.283417
1.5403034829653E13,2.0186462,2.5197601,9.453598
1.5403039865053E13,2.1936646,2.5555267,9.630814
1.5403044900453E13,2.3288116,2.5901184,9.703339
1.5403049935854E13,2.4247894,2.556488,9.636047
1.5403054971254E13,2.4578094,2.5035095,9.57782
1.5403060006655E13,2.4404144,2.4909668,9.545746
1.5403065042055E13,2.4002686,2.4716187,9.485947
1.5403070077455E13,2.3059998,2.41156,9.3407135
1.5403075112856E13,2.0978851,2.3043518,9.248398
1.5403080148256E13,1.9782867,2.241272,9.15596
1.5403085183657E13,1.6800385,2.0220032,9.182541
1.5403090219057E13,1.4558563,1.9353943,9.283966
1.5403095254457E13,1.4560089,1.9622192,9.287506
1.5403100289858E13,1.5340881,2.0525665,9.163635
1.5403105325258E13,1.6547241,2.1624146,9.1228485
1.5403110360659E13,1.8210602,2.2186127,9.130386
1.5403115396059E13,2.0245972,2.2287292,9.249237
1.5403120431459E13,2.252945,2.2631226,9.335831
1.540312546686E13,2.3150482,2.320221,9.477463
1.540313050226E13,2.2496033,2.3345337,9.548874
1.5403135537661E13,2.1072083,2.3009338,9.51326
1.5403140573061E13,2.0401611,2.2460938,9.473663
1.5403145608461E13,2.0539093,2.2279205,9.463303
1.5403150643862E13,2.1771545,2.171936,9.456467
1.5403155679262E13,2.2024994,2.1296997,9.405869
1.5403160714662E13,2.1826782,2.0842285,9.358185
1.5403165750063E13,2.207367,2.110733,9.242157
1.5403170785463E13,2.2602997,2.1079865,9.235718
1.5403175820864E13,2.3025818,2.1401825,9.321808
1.5403180856264E13,2.3259125,2.1631317,9.286774
1.5403185891664E13,2.3630676,2.130722,9.368317
1.5403190927065E13,2.3722992,2.0803528,9.2066345
1.5403195962465E13,2.2976837,2.0811005,9.179642
1.5403200997866E13,2.1212158,1.9841461,9.101181
1.5403206033266E13,1.8807068,1.8949432,9.18515
1.5403211068666E13,1.766861,1.852951,9.278961
1.5403216104067E13,1.726471,1.8664093,9.366501
1.5403221139467E13,1.677948,1.9774323,9.360016
1.5403226174868E13,1.5948334,2.0346222,9.408585
1.5403231210268E13,1.4452057,2.0189056,9.56694
1.5403236245668E13,1.495758,2.044876,9.74382
1.5403241281069E13,1.6327515,2.0857239,9.788437
1.5403246316469E13,1.7420349,2.1053162,9.957703
1.540325135187E13,1.7474518,2.1151276,10.01561
1.540325638727E13,1.7221985,2.1266785,9.823074
1.540326142267E13,1.6096802,2.0787964,9.662003
1.5403266458071E13,1.4871368,2.0092926,9.492493
1.5403271493471E13,1.4295654,1.9302979,9.369278
1.5403276528871E13,1.4408417,1.820404,9.397888
1.5403281564272E13,1.4159241,1.8002625,9.42305
1.5403286599672E13,1.4897461,1.7844849,9.546967
1.5403291635073E13,1.5288239,1.7152557,9.652344
1.5403296670473E13,1.6000214,1.6372528,9.637848
1.5403301705873E13,1.7631836,1.5922394,9.625336
1.5403306741274E13,1.8665466,1.6267548,9.655151
1.5403311776674E13,1.8472748,1.6995239,9.482651
1.5403316812075E13,1.6781921,1.6566467,9.203857
1.5403321847475E13,1.4455872,1.5682983,8.931137
1.5403326882875E13,1.3448029,1.5729675,8.877014
1.5403331918276E13,1.3649902,1.6401215,8.971512
1.5403336953676E13,1.4278259,1.741272,9.079941
1.5403341989077E13,1.4385529,1.7969666,9.208572
1.5403347024477E13,1.3549194,1.7836456,9.390579
1.5403352059877E13,1.2692719,1.7408142,9.568802
1.5403357095278E13,1.1941223,1.7214661,9.715897
1.5403362130678E13,1.165451,1.7148285,9.872757
1.5403367166078E13,1.1790161,1.6851196,9.918121
1.5403372201479E13,1.1537476,1.6715393,9.878906
1.5403377236879E13,1.1669922,1.6390686,9.784988
1.540338227228E13,1.2294464,1.6128235,9.636719
1.540338730768E13,1.302124,1.6188202,9.588318
1.540339234308E13,1.406601,1.6097717,9.526703
1.5403397378481E13,1.4796753,1.6326904,9.45311
1.5403402413881E13,1.4926147,1.6798706,9.33844
1.5403407449282E13,1.4584808,1.6471252,9.162949
1.5403412484682E13,1.4274597,1.500885,9.091171
1.5403417520082E13,1.3769989,1.3740082,9.178741
1.5403422555483E13,1.4674835,1.3197479,9.043137
1.5403427590883E13,1.4724884,1.0555267,8.92305
1.5403432626284E13,1.4075623,0.92593384,8.981842
1.5403437661684E13,1.3421478,1.039917,8.952759
1.5403442697084E13,1.4096375,1.2799377,9.062241
1.5403447732485E13,1.4681549,1.3190308,9.314758
1.5403452767885E13,1.5119781,1.3372955,9.655106
1.5403457803286E13,1.5418091,1.4956665,9.964874
1.5403462838686E13,1.6632233,1.7425079,10.172699
1.5403467874086E13,1.7358704,1.7210541,10.383209
1.5403472909487E13,1.7760925,1.6547241,10.405884
1.5403477944887E13,1.8830719,1.773941,10.261536
1.5403482980287E13,1.9585571,1.7212219,10.1188965
1.5403488015688E13,1.9768677,1.6350555,10.017975
1.5403493051088E13,2.0273285,1.435669,9.852814
1.5403498086489E13,2.1038055,1.2785645,9.629471
1.5403503121889E13,2.3089294,1.1133881,9.422852
1.5403508157289E13,2.505127,1.0257721,9.16684
1.540351319269E13,2.6681824,1.1144257,8.896118
1.540351822809E13,2.752304,1.3236694,8.951981
1.5403523263491E13,2.6654663,1.4226074,9.282379
1.5403528298891E13,2.5151062,1.5696716,9.618362
1.5403533334291E13,2.332672,1.7474213,9.927902
1.5403538369692E13,2.1494904,1.7804108,10.240921
1.5403543405092E13,1.8740845,1.7572784,10.548569
1.5403548440493E13,1.6321716,1.7359924,10.74791
1.5403553475893E13,1.4281158,1.558197,10.84433
1.5403558511293E13,1.2888641,1.4246521,10.93779
1.5403563546694E13,1.264801,1.3463745,10.812302
1.5403568582094E13,1.1864624,1.2490845,10.587173
1.5403573617495E13,1.0450745,1.094223,10.302139
1.5403578652895E13,0.83638,0.91719055,10.127762
1.5403583688295E13,0.87994385,0.8701935,9.953751
1.5403588723696E13,1.1537018,0.9136963,9.874054
1.5403593759096E13,1.4572601,1.0697327,9.8949585
1.5403598794496E13,1.7390289,1.2996063,10.04216
1.5403603829897E13,1.9472961,1.4214478,9.956116
1.5403608865297E13,1.9567261,1.5271301,9.878296
1.5403613900698E13,1.8049622,1.6889954,9.951721
1.5403618936098E13,1.6340485,1.6600342,9.998703
1.5403623971498E13,1.4650116,1.5718994,10.030899
1.5403629006899E13,1.4299316,1.5480347,10.024506
1.5403634042299E13,1.3942261,1.5054779,10.0876465
1.54036390777E13,1.3071136,1.3822327,9.982483
1.54036441131E13,1.1197662,1.2104797,9.873184
1.54036491485E13,0.8974304,1.0926208,9.773666
1.5403654183901E13,0.7402191,0.9670563,9.809891
1.5403659219301E13,0.69818115,0.81166077,9.974426
1.5403664254702E13,0.63175964,0.63298035,10.118698
1.5403669290102E13,0.70077515,0.7666931,9.932587
1.5403674325502E13,0.8599243,1.1821747,9.694717
1.5403679360903E13,0.87379456,1.5183258,9.516693
1.5403684396303E13,0.73979187,1.6100922,9.493988
1.5403689431703E13,0.6447449,1.4858704,9.520706
1.5403694467104E13,0.73542786,1.2511292,9.582962
1.5403699502504E13,0.8806,1.0055695,9.615707
1.5403704537905E13,0.9510498,0.9737854,9.580109
1.5403709573305E13,0.96499634,1.1365204,9.439194
1.5403714608705E13,0.9918518,1.2797089,9.311707
1.5403719644106E13,0.96899414,1.3523407,9.344116
1.5403724679506E13,0.94407654,1.290863,9.533447
1.5403729714907E13,0.9913025,1.1762085,9.698776
1.5403734750307E13,1.184433,1.1472778,9.668335
1.5403739785707E13,1.4023132,1.201416,9.549896
1.5403744821108E13,1.4740295,1.297287,9.513733
1.5403749856508E13,1.4750671,1.3574677,9.649887
1.5403754891909E13,1.4992218,1.3717957,9.852661
1.5403759927309E13,1.4627533,1.3717957,9.847382
1.5403764962709E13,1.5224304,1.3806915,10.026688
1.540376999811E13,1.3945007,1.3480988,9.737961
1.540377503351E13,1.1554413,1.3452454,9.347885
1.5403780068911E13,1.0164795,1.3521576,9.245987
1.5403785104311E13,0.9940338,1.2796631,9.3541565
1.5403790139711E13,0.978775,1.1416931,9.693634
1.5403795175112E13,1.012085,1.1234589,10.034348
1.5403800210512E13,0.96577454,1.213501,10.347931
1.5403805245912E13,1.0142975,1.3209991,10.588593
1.5403810281313E13,1.2920837,1.2292023,10.810486
1.5403815316713E13,1.4616547,1.1682129,10.787979
1.5403820352114E13,1.4784546,1.3441467,10.817261
1.5403825387514E13,1.4086761,1.4906311,10.753387
1.5403830422914E13,1.3509521,1.4815979,10.584076
1.5403835458315E13,1.1820679,1.4662628,10.388687
1.5403840493715E13,1.1582642,1.2745514,10.137131
1.5403845529116E13,1.0903168,1.0807495,9.736053
1.5403850564516E13,1.244461,1.011383,9.179871
1.5403855599916E13,1.5072479,1.0856781,8.665558
1.5403860635317E13,1.3566284,1.2523804,8.430023
1.5403865670717E13,1.5033875,1.3197937,8.366608
1.5403870706118E13,1.6192169,1.2456207,8.515778
1.5403875741518E13,1.481308,1.2269592,8.852158
1.5403880776918E13,1.2525787,1.2999573,9.663086
1.5403885812319E13,0.8935547,1.5256653,10.794006
1.5403890847719E13,0.71676636,1.4697723,11.486465
1.540389588312E13,0.72109985,1.3621521,11.729523
1.540390091852E13,0.43041992,1.3421783,11.483215
1.540390595392E13,0.6323395,1.3678436,11.335968
1.5403910989321E13,0.5634308,1.6416779,11.270721
1.5403916024721E13,0.47950745,1.6915436,11.145874
1.5403921060121E13,0.6129303,1.4894257,10.884628
1.5403926095522E13,1.1597595,1.3168182,10.439117
1.5403931130922E13,1.7850189,1.383667,10.231857
1.5403936166323E13,2.3007813,1.2895203,10.193527
1.5403941201723E13,2.4344635,1.0831909,9.755356
1.5403946237123E13,2.2845001,0.8240509,9.139084
1.5403951272524E13,1.6702576,0.59658813,8.597656
1.5403956307924E13,1.0356445,0.5331421,8.56871
1.5403961343325E13,0.3686676,0.6386261,8.9075775
1.5403966378725E13,-0.17330933,0.84117126,9.385208
1.5403971414125E13,-0.42823792,0.93852234,9.849564
1.5403976449526E13,-0.39163208,1.116684,10.15361
1.5403981484926E13,-0.015945435,1.3653564,10.461563
1.5403986520327E13,0.32759094,1.5872498,10.75444
1.5403991555727E13,0.60209656,1.651001,10.941116
1.5403996591127E13,0.7700043,1.6148682,10.890381
1.5404001626528E13,0.9513397,1.4749298,10.672287
1.5404006661928E13,1.242981,1.3147125,10.45459
1.5404011697328E13,1.4545593,1.3193359,10.341568
1.5404016732729E13,1.6005096,1.357544,10.2695465
1.5404021768129E13,1.5161896,1.3036194,10.20433
1.540402680353E13,1.2917938,1.1072083,10.058563
1.540403183893E13,1.04776,0.8644867,9.922974
1.540403687433E13,0.95170593,0.74453735,9.820419
1.5404041909731E13,0.8675232,0.71855164,9.723663
1.5404046945131E13,0.60983276,0.66696167,9.67482
1.5404051980532E13,0.3775177,0.5480499,9.591919
1.5404057015932E13,0.25231934,0.5669098,9.579559
1.5404062051332E13,0.16896057,0.7310028,9.62532
1.5404067086733E13,0.1194458,0.8897705,9.818375
1.5404072122133E13,0.13124084,1.0006866,10.099762
1.5404077157534E13,0.30973816,1.0749207,10.2669525
1.5404082192934E13,0.6672821,1.0991516,10.338394
1.5404087228334E13,1.0618134,1.0866394,10.379196
1.5404092263735E13,1.2706146,1.0800171,10.467606
1.5404097299135E13,1.1043091,1.0383453,10.554184
1.5404102334536E13,0.9313202,0.93984985,10.582703
1.5404107369936E13,0.767746,0.87701416,10.52858
1.5404112405336E13,0.7642822,0.7576599,10.283752
1.5404117440737E13,0.9543457,0.62490845,10.0460205
1.5404122476137E13,1.0691528,0.6586304,9.880905
1.5404127511537E13,1.0990143,0.6468048,9.74884
1.5404132546938E13,1.0866241,0.68159485,9.565262
1.5404137582338E13,1.0504608,0.6906128,9.416031
1.5404142617739E13,0.9769287,0.656723,9.253235
1.5404147653139E13,0.972229,0.6944275,9.115524
1.5404152688539E13,0.7790375,0.6715393,9.220932
1.540415772394E13,0.6801758,0.5780029,9.607758
1.540416275934E13,0.49017334,0.5345459,10.171158
1.5404167794741E13,0.4981537,0.63882446,10.541946
1.5404172830141E13,0.7901764,0.69595337,10.555878
1.5404177865541E13,1.0206299,0.73353577,10.433121
1.5404182900942E13,1.1235504,0.7985077,10.24527
1.5404187936342E13,1.1713104,0.77575684,10.032974
1.5404192971743E13,1.0129395,0.6728668,9.912018
1.5404198007143E13,0.81881714,0.5068207,10.039307
1.5404203042543E13,0.4533844,0.2776947,10.328217
1.5404208077944E13,0.13424683,0.2331543,10.684174
1.5404213113344E13,0.17425537,0.3980713,10.782684
1.5404218148745E13,0.40211487,0.56121826,10.657425
1.5404223184145E13,0.6602936,0.6511841,10.43071
1.5404228219545E13,0.97398376,0.7535248,10.2379
1.5404233254946E13,1.2511139,0.79512024,10.137787
1.5404238290346E13,1.3057404,0.8430481,10.185837
1.5404243325746E13,1.2142181,0.80229187,10.306915
1.5404248361147E13,0.9874573,0.70410156,10.200638
1.5404253396547E13,0.81159973,0.56033325,10.009491
1.5404258431948E13,0.76446533,0.50198364,9.733429
1.5404263467348E13,0.82099915,0.49977112,9.395401
1.5404268502748E13,0.9078064,0.48428345,9.232498
1.5404273538149E13,1.0606842,0.4238739,9.342682
1.5404278573549E13,1.0168304,0.32315063,9.539032
1.540428360895E13,0.82603455,0.25239563,9.801346
1.540428864435E13,0.60162354,0.23316956,10.047455
1.540429367975E13,0.45768738,0.28137207,10.310318
1.5404298715151E13,0.38682556,0.24234009,10.355667
1.5404303750551E13,0.40281677,0.26664734,10.484024
1.5404308785952E13,0.47821045,0.38537598,10.740097
1.5404313821352E13,0.4453125,0.53723145,11.006897
1.5404318856752E13,0.36462402,0.5394592,11.20018
1.5404323892153E13,0.2846985,0.5134125,11.170837
1.5404328927553E13,0.33122253,0.43258667,10.90741
1.5404333962953E13,0.4537964,0.31193542,10.501801
1.5404338998354E13,0.72306824,0.15388489,10.043182
1.5404344033754E13,0.95033264,0.088012695,9.566681
1.5404349069155E13,1.0431671,0.1211853,9.187439
1.5404354104555E13,1.0182495,0.16822815,9.070908
1.5404359139955E13,0.89971924,0.08389282,9.289917
1.5404364175356E13,0.7704468,4.4250488E-4,9.584518
1.5404369210756E13,0.7088623,0.06604004,10.032822
1.5404374246157E13,0.75094604,0.17770386,10.475021
1.5404379281557E13,0.8176727,0.22824097,10.797592
1.5404384316957E13,0.8819885,0.28599548,11.093033
1.5404389352358E13,0.9118805,0.32122803,11.312424
1.5404394387758E13,0.88778687,0.24920654,11.32869
1.5404399423159E13,0.8052521,0.030059814,11.0759735
1.5404404458559E13,0.6231079,-0.27922058,10.468353
1.5404409493959E13,0.3857727,-0.58058167,9.589798
1.540441452936E13,0.1955719,-0.79626465,8.784561
1.540441956476E13,0.059402466,-0.802536,8.301407
1.5404424600161E13,-0.046432495,-0.6604309,8.252411
1.5404429635561E13,-0.109298706,-0.48458862,8.629837
1.5404434670961E13,-0.14796448,-0.40060425,9.20253
1.5404439706362E13,-0.18606567,-0.4111786,9.907196
1.5404444741762E13,-0.17999268,-0.3683319,10.600571
1.5404449777162E13,-0.0069885254,-0.19065857,11.035416
1.5404454812563E13,0.25442505,-0.10493469,11.254471
1.5404459847963E13,0.43049622,-0.1845398,11.291
1.5404464883364E13,0.5546112,-0.24749756,11.1249695
1.5404469918764E13,0.55137634,-0.27552795,11.024902
1.5404474954164E13,0.49945068,-0.2768402,10.852219
1.5404479989565E13,0.5626373,-0.26142883,10.466217
1.5404485024965E13,0.548584,-0.38513184,10.204987
1.5404490060366E13,0.25090027,-0.4806366,10.118149
1.5404495095766E13,-0.06265259,-0.5033417,10.313049
1.5404500131166E13,-0.28440857,-0.44657898,10.725601
1.5404505166567E13,-0.36561584,-0.39813232,11.243729
1.5404510201967E13,-0.22038269,-0.39341736,11.63559
1.5404515237368E13,-0.11807251,-0.45329285,11.758942
1.5404520272768E13,-0.03718567,-0.5031433,11.7656555
1.5404525308168E13,0.06411743,-0.41926575,11.580704
1.5404530343569E13,0.30986023,-0.33454895,11.220825
1.5404535378969E13,0.5767517,-0.33120728,10.824432
1.540454041437E13,0.727417,-0.4466095,10.516357
1.540454544977E13,0.81622314,-0.4275055,10.1128845
1.540455048517E13,0.82307434,-0.42086792,9.809525
1.5404555520571E13,0.77622986,-0.42062378,9.402496
1.5404560555971E13,0.613678,-0.42062378,9.029755
1.5404565591371E13,0.32260132,-0.5420685,9.000992
1.5404570626772E13,0.042037964,-0.6607971,9.085022
1.5404575662172E13,-0.2577057,-0.73313904,9.42543
1.5404580697573E13,-0.4342804,-0.82888794,9.589127
1.5404585732973E13,-0.51397705,-0.84558105,9.808334
1.5404590768373E13,-0.5185089,-0.8244629,10.0035095
1.5404595803774E13,-0.45446777,-0.7755432,10.166412
1.5404600839174E13,-0.43125916,-0.6316681,10.223175
1.5404605874575E13,-0.62538147,-0.6188507,10.369553
1.5404610909975E13,-1.2615814,-0.6816101,11.496887
1.5404615945375E13,-0.77130127,-0.4060669,13.412964
1.5404620980776E13,1.3226471,0.008575439,12.229523
1.5404626016176E13,2.1248627,0.31282043,10.1008
1.5404631051577E13,1.3440094,-0.16656494,8.924698
1.5404636086977E13,-0.1709137,-0.8899689,9.003372
1.5404641122377E13,-1.2871552,-1.1157379,10.189987
1.5404646157778E13,-1.3758392,-0.77008057,11.338821
1.5404651193178E13,-0.34623718,-0.37101746,10.889328
1.5404656228578E13,0.20080566,-0.372406,10.014816
1.5404661263979E13,0.22442627,-0.71539307,9.425232
1.5404666299379E13,0.1533966,-0.94129944,9.104599
1.540467133478E13,0.18693542,-0.8705902,9.06044
1.540467637018E13,0.3410492,-0.6858063,9.080231
1.540468140558E13,0.46626282,-0.58325195,9.128311
1.5404686440981E13,0.34858704,-0.65390015,8.959427
1.5404691476381E13,0.044784546,-0.66996765,8.988113
1.5404696511782E13,-0.2982788,-0.71235657,9.183121
1.5404701547182E13,-0.58192444,-0.6819763,9.498856
1.5404706582582E13,-0.71095276,-0.582077,9.980545
1.5404711617983E13,-0.62532043,-0.59776306,10.33519
1.5404716653383E13,-0.32966614,-0.6596527,10.434891
1.5404721688784E13,-0.040527344,-0.7528229,10.332687
1.5404726724184E13,0.08131409,-0.9840698,10.0247345
1.5404731759584E13,0.07273865,-1.3034363,9.666473
1.5404736794985E13,-4.2891235,-2.822754,13.363998
1.5404741830385E13,-3.8792572,-1.51857,9.549759
1.5404746865786E13,0.29914856,-0.09590149,7.8058167
1.5404751901186E13,-1.9687805,-1.6816406,12.773361
1.5404756936586E13,0.9836731,-0.34552002,6.88591
1.5404761971987E13,0.9463196,-0.55093384,9.322174
1.5404767007387E13,1.3032379,-0.3424225,10.332413
1.5404772042787E13,1.3385773,-0.3298645,10.154419
1.5404777078188E13,1.1144867,-0.6794739,10.033279
1.5404782113588E13,1.0077972,-0.8063812,9.895996
1.5404787148989E13,1.0803528,-0.68096924,9.864151
1.5404792184389E13,0.8823242,-0.700058,9.9548645
1.5404797219789E13,0.51016235,-0.7357025,10.0612335
1.540480225519E13,0.2519989,-0.6368408,10.1901245
1.540480729059E13,0.12550354,-0.6365051,9.996338
1.5404812325991E13,-0.18470764,-0.86961365,9.952835
1.5404817361391E13,-0.4316101,-0.9530487,10.08696
1.5404822396791E13,-0.27087402,-0.773468,10.048126
1.5404827432192E13,-0.06417847,-0.56552124,10.014084
1.5404832467592E13,-0.061157227,-0.62120056,9.978867
1.5404837502993E13,0.033340454,-0.6778717,9.90036
1.5404842538393E13,0.2646637,-0.6859741,9.892471
1.5404847573793E13,0.35040283,-0.60118103,10.027191
1.5404852609194E13,0.33927917,-0.6800842,9.998108
1.5404857644594E13,0.2978058,-0.8433838,9.896545
1.5404862679995E13,0.28346252,-0.7718353,9.97493
1.5404867715395E13,0.10707092,-0.74435425,10.083374
1.5404872750795E13,0.17741394,-0.5838928,9.9913025
1.5404877786196E13,0.69114685,-0.16749573,10.055084
1.5404882821596E13,1.0097504,0.015136719,9.979248
1.5404887856996E13,1.0270691,-0.005584717,9.947067
1.5404892892397E13,0.2654724,-0.5855713,11.161194
1.5404897927797E13,0.52404785,-0.36042786,10.530579
1.5404902963198E13,0.65927124,-0.20581055,10.110092
1.5404907998598E13,0.89082336,-0.5384979,10.019501
1.5404913033998E13,0.6796112,-0.9466858,9.877411
1.5404918069399E13,0.21325684,-1.3940277,9.751007
1.5404923104799E13,-0.3063507,-1.0648346,9.969589
1.54049281402E13,-0.42959595,-0.63557434,9.906586
1.54049331756E13,-0.65060425,-0.4920349,9.964767
1.5404938211E13,-0.78796387,-0.67892456,10.059708
1.5404943246401E13,-0.5321045,-0.5824127,9.839752
1.5404948281801E13,-0.17933655,-0.48349,9.990555
1.5404953317202E13,0.6345215,-0.23562622,9.983017
1.5404958352602E13,0.9492035,-0.15034485,9.999496
1.5404963388002E13,0.84628296,0.030792236,9.872086
1.5404968423403E13,0.32144165,-0.1820221,9.931274
1.5404973458803E13,-0.09007263,-0.70970154,10.005524
1.5404978494203E13,-0.5159912,-0.9850006,10.1362
1.5404983529604E13,-0.44030762,-0.6472168,10.125076
1.5404988565004E13,0.0104522705,-0.10261536,9.743332
1.5404993600405E13,0.8651886,-0.3035736,10.042938
1.5404998635805E13,0.9463806,-0.4931488,10.090057
1.5405003671205E13,0.5873718,-0.636673,10.050842
1.5405008706606E13,0.253479,-0.58657837,10.002289
1.5405013742006E13,0.35993958,-0.55255127,9.900955
1.5405018777407E13,0.3345337,-0.6249695,9.995636
1.5405023812807E13,0.33665466,-0.5051575,10.00647
1.5405028848207E13,0.6757965,-0.18858337,9.954025
1.5405033883608E13,0.98542786,0.14978027,9.960251
1.5405038919008E13,0.64707947,0.055984497,10.17012
1.5405043954409E13,0.5607605,-0.025283813,10.079498
1.5405048989809E13,0.0087890625,-0.28103638,9.997955
1.5405054025209E13,-0.32014465,-0.44654846,10.071686
1.540505906061E13,-0.3935547,-0.4646759,10.174149
1.540506409601E13,-0.22497559,-0.4046631,9.994476
1.5405069131411E13,-0.098083496,-0.4139862,9.949997
1.5405074166811E13,-0.16641235,-0.4675598,10.039261
1.5405079202211E13,-0.45903015,-0.6090698,10.160889
1.5405084237612E13,-0.4919281,-0.6985779,10.112396
1.5405089273012E13,-0.3009491,-0.7223053,10.106644
1.5405094308412E13,-0.16828918,-0.67552185,10.178436
1.5405099343813E13,-0.18940735,-0.42785645,10.061462
1.5405104379213E13,-0.14611816,-0.064575195,10.045258
1.5405109414614E13,-0.25987244,0.21803284,10.108719
1.5405114450014E13,-0.44900513,0.3560791,10.040039
1.5405119485414E13,-0.2492981,0.31576538,10.047241
1.5405124520815E13,0.0599823,0.10305786,10.139786
1.5405129556215E13,0.15084839,-0.19459534,10.308014
1.5405134591616E13,0.3261261,-0.26367188,10.11496
1.5405139627016E13,0.5097351,-0.32035828,9.848022
1.5405144662416E13,0.46461487,-0.5860748,9.848022
1.5405149697817E13,0.23046875,-0.8739624,9.855286
1.5405154733217E13,0.09613037,-0.8513794,9.901779
1.5405159768618E13,-0.2603302,-0.7657776,10.043289
1.5405164804018E13,-0.5732422,-0.81703186,9.934708
1.5405169839418E13,-1.089386,-1.0120544,10.053177
1.5405174874819E13,-1.2102661,-0.9102936,10.088028
1.5405179910219E13,-0.8530731,-0.6101227,9.974548
1.540518494562E13,-0.44548035,-0.34709167,10.078781
1.540518998102E13,-0.10499573,-0.23547363,10.128555
1.540519501642E13,0.25431824,-0.17311096,9.844131
1.5405200051821E13,0.28128052,-0.15142822,9.873062
1.5405205087221E13,0.09794617,-0.20568848,10.091965
1.5405210122621E13,0.16914368,-0.07185364,10.066513
1.5405215158022E13,0.10397339,-0.104522705,10.10379
1.5405220193422E13,0.35746765,0.057022095,10.167099
1.5405225228823E13,0.71569824,0.21646118,10.10408
1.5405230264223E13,1.1548309,0.53926086,9.943726
1.5405235299623E13,1.3942413,0.0038757324,9.040314
1.5405240335024E13,-0.84391785,-0.64476013,12.267441
1.5405245370424E13,-1.1867981,-0.6275635,12.080109
1.5405250405825E13,-1.0106964,-0.8308258,10.913925
1.5405255441225E13,-0.93807983,-0.35891724,9.789505
1.5405260476625E13,-0.16474915,0.02104187,9.627121
1.5405265512026E13,-0.66075134,-0.7817383,11.905014
1.5405270547426E13,-1.8061829,-1.2610779,12.148575
1.5405275582827E13,-0.10340881,-0.31066895,9.463974
1.5405280618227E13,-0.2635498,-0.46961975,10.14386
1.5405285653627E13,-0.03363037,-0.3106079,10.220413
1.5405290689028E13,-0.10733032,-0.38235474,9.702057
1.5405295724428E13,-0.0131073,-0.30194092,10.208542
1.5405300759828E13,0.027069092,-0.30863953,10.425003
1.5405305795229E13,0.053634644,-0.32711792,10.239929
1.5405310830629E13,-0.055023193,-0.6469574,9.979034
1.540531586603E13,-0.008117676,-0.09020996,9.950287
1.540532090143E13,-0.06137085,-0.11935425,9.898148
1.540532593683E13,-0.11859131,0.02003479,9.930847
1.5405330972231E13,0.037231445,0.17436218,10.640167
1.5405336007631E13,0.0051879883,0.14822388,10.386536
1.5405341043032E13,-0.0096588135,-0.1621399,10.288406
1.5405346078432E13,-0.045776367,-0.30119324,9.978287
1.5405351113832E13,-0.045913696,-0.19212341,9.89473
1.5405356149233E13,-0.124420166,-0.09269714,9.786942
1.5405361184633E13,-0.11128235,-0.11930847,9.8320465
1.5405366220034E13,-0.12686157,-0.22564697,9.904083
1.5405371255434E13,-0.09185791,-0.35681152,9.931503
1.5405376290834E13,-0.10609436,-0.42800903,10.027664
1.5405381326235E13,-0.14988708,-0.3787079,10.1362915
1.5405386361635E13,-0.17623901,-0.34524536,10.119019
1.5405391397036E13,-0.17578125,-0.28115845,10.009689
1.5405396432436E13,-0.18652344,-0.19406128,10.432953
1.5405401467836E13,-0.22402954,-0.12557983,10.4687805
1.5405406503237E13,-0.32595825,-0.12246704,10.172394
1.5405411538637E13,-0.40267944,-0.10614014,9.957748
1.5405416574037E13,-0.43971252,-0.22875977,10.01828
1.5405421609438E13,-0.6188965,-0.47175598,10.128357
1.5405426644838E13,-0.70803833,-0.5807953,9.951447
1.5405431680239E13,-0.61683655,-0.5406189,9.893005
1.5405436715639E13,-0.26116943,-0.12350464,10.04982
1.5405441751039E13,0.28077698,0.47773743,10.117752
1.540544678644E13,0.8365936,0.9329529,9.934601
1.540545182184E13,0.8807068,0.737442,9.818802
1.5405456857241E13,0.20666504,0.16931152,9.8750305
1.5405461892641E13,-0.20239258,-0.040908813,9.732864
1.5405466928041E13,-0.1851654,-0.07173157,9.798935
1.5405471963442E13,-0.18669128,-0.0927124,9.908646
1.5405476998842E13,-0.2063446,-0.09864807,9.893387
1.5405482034243E13,-0.099823,-0.056747437,9.873245
1.5405487069643E13,0.18434143,0.0954895,9.874313
1.5405492105043E13,0.36686707,0.11878967,9.939774
1.5405497140444E13,0.3502655,-0.00894165,10.0737915
1.5405502175844E13,0.28175354,-0.094818115,10.156357
1.5405507211245E13,0.0635376,-0.108306885,10.362183
1.5405512246645E13,-0.26004028,-0.11099243,10.207291
1.5405517282045E13,-0.25302124,-0.0552063,10.322784
1.5405522317446E13,0.010864258,-0.13414001,10.012039
1.5405527352846E13,-0.11694336,-0.2496643,9.689819
1.5405532388246E13,-0.26062012,-0.29504395,10.003326
1.5405537423647E13,-0.40733337,-0.205307,9.795639
1.5405542459047E13,-0.57666016,-0.04246521,9.765457
1.5405547494448E13,-0.6136322,0.14125061,9.839813
1.5405552529848E13,-0.34754944,0.689682,10.29039
1.5405557565248E13,-0.19857788,0.016540527,9.603561
1.5405562600649E13,-0.38101196,-0.14318848,10.226425
1.5405567636049E13,-0.49076843,-0.09060669,10.573517
1.540557267145E13,-0.31999207,0.011291504,10.037369
1.540557770685E13,-0.1978302,0.039474487,9.590393
1.540558274225E13,-0.2089386,0.012130737,9.984222
1.5405587777651E13,-0.21472168,0.012039185,10.311218
1.5405592813051E13,-0.17210388,-0.019577026,10.156845
1.5405597848452E13,-0.20996094,-0.0048675537,9.97403
1.5405602883852E13,-0.21076965,0.004928589,9.892792
1.5405607919252E13,-0.1607666,0.014450073,9.908844
1.5405612954653E13,-0.18521118,0.01725769,10.00798
1.5405617990053E13,-0.14465332,0.0010986328,10.000778
1.5405623025453E13,-0.10362244,0.068878174,9.854706
1.5405628060854E13,-0.069869995,0.07637024,9.961533
1.5405633096254E13,-0.06297302,0.052230835,10.067963
1.5405638131655E13,-0.09132385,0.005645752,10.114639
1.5405643167055E13,-0.4046173,-0.050628662,10.171204
1.5405648202455E13,-0.37599182,-0.028335571,10.110886
1.5405653237856E13,-0.18380737,7.019043E-4,10.082016
1.5405658273256E13,-0.20942688,4.119873E-4,10.00029
1.5405663308657E13,-0.17214966,-0.010177612,9.993332
1.5405668344057E13,-0.19003296,0.020568848,10.020264
1.5405673379457E13,-0.18006897,0.04095459,10.081177
1.5405678414858E13,-0.16905212,0.026321411,10.103043
1.5405683450258E13,-0.17456055,0.030883789,10.054474
1.5405688485659E13,-0.22528076,-0.0011901855,10.00592
1.5405693521059E13,-0.20515442,-0.019241333,10.063858
1.5405698556459E13,-0.18153381,-0.022644043,10.069946
1.540570359186E13,-0.20785522,0.012268066,10.12764
1.540570862726E13,-0.23634338,2.2888184E-4,10.073135
1.5405713662661E13,-0.342865,-0.0033111572,10.053528
1.5405718698061E13,-0.39823914,0.018234253,10.003281
1.5405723733461E13,-0.38027954,0.024246216,10.00737
1.5405728768862E13,-0.25872803,0.018859863,9.960373
1.5405733804262E13,-0.06643677,0.06259155,9.887405
1.5405738839662E13,0.08807373,0.099609375,9.86116
1.5405743875063E13,6.5612793E-4,0.080947876,9.8884735
1.5405748910463E13,-0.18855286,0.0033874512,9.99324
1.5405753945864E13,-0.18582153,0.07173157,9.447815
1.5405758981264E13,-0.18876648,0.1010437,9.068771
1.5405764016664E13,-0.13085938,0.02027893,10.1987915
1.5405769052065E13,-0.07119751,-0.043701172,11.104385
1.5405774087465E13,-0.12882996,-0.038345337,10.561783
1.5405779122866E13,-0.23832703,0.041641235,9.054047
1.5405784158266E13,-0.20732117,0.036071777,9.838745
1.5405789193666E13,-0.08459473,0.020004272,11.047241
1.5405794229067E13,-0.06855774,-1.5258789E-5,11.065811
1.5405799264467E13,-0.17095947,-0.013580322,10.167099
1.5405804299868E13,-0.2705078,0.015075684,9.172684
1.5405809335268E13,-0.3818817,0.04588318,8.129166
1.5405814370668E13,-0.38935852,0.019714355,8.504562
1.5405819406069E13,-0.19421387,-0.006729126,10.09906
1.5405824441469E13,-0.080337524,-0.002029419,11.029419
1.540582947687E13,-0.0667572,-0.0066986084,11.224396
1.540583451227E13,-0.05923462,-0.0029296875,11.162384
1.540583954767E13,-0.07145691,-0.005722046,10.899857
1.5405844583071E13,-0.14659119,0.0028533936,10.324234
1.5405849618471E13,-0.20477295,0.020233154,9.584427
1.5405854653871E13,-0.2649994,0.032318115,9.134415
1.5405859689272E13,-0.24313354,0.009170532,9.276627
1.5405864724672E13,-0.2151947,0.027923584,9.752167
1.5405869760073E13,-0.1818695,0.024871826,10.277359
1.5405874795473E13,-0.13322449,-0.002105713,10.457993
1.5405879830873E13,-0.11457825,0.02418518,10.450302
1.5405884866274E13,-0.11618042,0.011657715,10.25769
1.5405889901674E13,-0.1535492,-0.0041503906,9.904129
1.5405894937075E13,-0.15473938,-0.0013122559,9.7747345
1.5405899972475E13,-0.18754578,0.033828735,9.763748
1.5405905007875E13,-0.17921448,0.043548584,9.90065
1.5405910043276E13,-0.15512085,-0.008895874,10.112518
1.5405915078676E13,-0.16847229,0.03250122,10.239563
1.5405920114077E13,-0.147995,0.0012664795,10.209244
1.5405925149477E13,-0.16062927,0.016281128,10.07547
1.5405930184877E13,-0.1815033,0.005630493,9.890823
1.5405935220278E13,-0.20735168,0.009429932,9.854477
1.5405940255678E13,-0.19522095,0.003768921,9.92804
1.5405945291078E13,-0.16093445,0.01612854,10.02977
1.5405950326479E13,-0.18449402,0.0062561035,10.091812
1.5405955361879E13,-0.16758728,-0.019683838,10.131302
1.540596039728E13,-0.21072388,0.022598267,10.222992
1.540596543268E13,-0.14993286,0.008239746,10.052475
1.540597046808E13,-0.18362427,0.014892578,9.954041
1.5405975503481E13,-0.13406372,0.03640747,9.974289
1.5405980538881E13,-0.15336609,0.019821167,9.961685
1.5405985574282E13,-0.16682434,0.024307251,10.053711
1.5405990609682E13,-0.15753174,0.045028687,10.012054
1.5405995645082E13,-0.15072632,-0.01600647,10.096466
1.5406000680483E13,-0.15301514,0.019210815,10.068741
1.5406005715883E13,-0.1806488,0.011566162,10.026779
1.5406010751284E13,-0.17463684,-0.0016174316,10.004486
1.5406015786684E13,-0.21943665,-0.021469116,10.0168915
1.5406020822084E13,-0.20021057,0.016738892,9.971558
1.5406025857485E13,-0.120010376,0.042770386,10.031982
1.5406030892885E13,-0.15997314,0.020706177,10.011795
1.5406035928286E13,-0.15090942,0.008926392,10.037918
1.5406040963686E13,-0.17453003,0.048721313,10.052155
1.5406045999086E13,-0.17581177,0.045288086,10.025391
1.5406051034487E13,-0.1804657,0.013305664,10.015091
1.5406056069887E13,-0.16572571,0.025054932,10.013733
1.5406061105287E13,-0.16726685,0.024536133,10.038483
1.5406066140688E13,-0.18511963,0.010574341,10.059021
1.5406071176088E13,-0.18005371,-0.00944519,10.057068
1.5406076211489E13,-0.19319153,-1.0681152E-4,9.99881
1.5406081246889E13,-0.19062805,0.026901245,10.000641
1.5406086282289E13,-0.17965698,0.010772705,10.008026
1.540609131769E13,-0.13085938,0.026855469,9.988571
1.540609635309E13,-0.16252136,0.018295288,9.986938
1.5406101388491E13,-0.18078613,-0.011978149,10.005356
1.5406106423891E13,-0.14674377,0.009735107,10.035049
1.5406111459291E13,-0.1605072,0.03504944,10.020706
1.5406116494692E13,-0.18605042,0.028289795,10.053482
1.5406121530092E13,-0.16220093,0.017944336,10.060974
1.5406126565493E13,-0.13970947,0.017791748,10.04776
1.5406131600893E13,-0.15130615,0.037002563,10.054443
1.5406136636293E13,-0.14315796,0.031158447,10.053986
1.5406141671694E13,-0.15856934,0.024154663,10.043442
1.5406146707094E13,-0.16796875,0.026992798,10.01889
1.5406151742495E13,-0.18759155,0.01373291,9.996918
1.5406156777895E13,-0.1940155,0.011627197,10.006744
1.5406161813295E13,-0.19018555,0.026763916,10.01358
1.5406166848696E13,-0.16725159,0.035186768,10.03302
1.5406171884096E13,-0.15890503,0.04611206,10.064941
1.5406176919496E13,-0.16885376,0.030731201,10.0399475
1.5406181954897E13,-0.16430664,0.016799927,10.016159
1.5406186990297E13,-0.16557312,0.039901733,10.047379
1.5406192025698E13,-0.16253662,0.02558899,10.038284
1.5406197061098E13,-0.17282104,0.024230957,10.017136
1.5406202096498E13,-0.18560791,0.019378662,10.032623
1.5406207131899E13,-0.17382813,0.013366699,10.022018
1.5406212167299E13,-0.15133667,0.018188477,9.978653
1.54062172027E13,-0.16334534,0.024673462,9.954163
1.54062222381E13,-0.18623352,0.030014038,9.99585
1.54062272735E13,-0.15359497,0.024978638,10.029526
1.5406232308901E13,-0.17324829,0.016860962,10.026794
1.5406237344301E13,-0.18643188,0.011413574,10.010025
1.5406242379702E13,-0.16651917,0.008407593,10.00705
1.5406247415102E13,-0.19172668,0.01524353,10.0039215
1.5406252450502E13,-0.15686035,0.015609741,10.034439
1.5406257485903E13,-0.1638794,0.014984131,10.032486
1.5406262521303E13,-0.16195679,-0.012420654,10.034912
1.5406267556703E13,-0.14834595,-0.0044403076,10.097748
1.5406272592104E13,-0.16017151,0.02670288,10.041031
1.5406277627504E13,-0.14204407,0.033691406,10.029037
1.5406282662905E13,-0.15438843,-0.0068206787,10.0271
1.5406287698305E13,-0.19798279,0.007247925,10.062546
1.5406292733705E13,-0.1728363,0.033996582,9.991486
1.5406297769106E13,-0.18080139,-0.0054779053,10.025696
1.5406302804506E13,-0.18167114,0.053726196,10.0312805
1.5406307839907E13,-0.16583252,0.023864746,9.988419
1.5406312875307E13,-0.13938904,-0.005645752,10.011826
1.5406317910707E13,-0.18544006,-0.034484863,10.031097
1.5406322946108E13,-0.12800598,0.004714966,10.05246
1.5406327981508E13,-0.15107727,0.035964966,10.03598
1.5406333016909E13,-0.17900085,1.6784668E-4,10.019638
1.5406338052309E13,-0.16682434,-0.019119263,10.025513
1.5406343087709E13,-0.15344238,0.018814087,10.05452
1.540634812311E13,-0.18997192,0.019744873,9.988022
1.540635315851E13,-0.17391968,0.018508911,10.039307
1.5406358193911E13,-0.16763306,0.001953125,10.020508
1.5406363229311E13,-0.17401123,-0.02204895,10.013962
1.5406368264711E13,-0.20385742,0.04182434,10.061615
1.5406373300112E13,-0.17262268,0.029953003,10.039444
1.5406378335512E13,-0.1502533,0.030426025,10.044388
1.5406383370912E13,-0.16474915,-0.007858276,10.008301
1.5406388406313E13,-0.18247986,0.021499634,9.9960785
1.5406393441713E13,-0.15779114,0.018173218,10.04158
1.5406398477114E13,-0.13549805,-0.03024292,10.083801
1.5406403512514E13,-0.16223145,-0.04612732,10.047302
1.5406408547914E13,-0.15463257,-0.030838013,10.038574
1.5406413583315E13,-0.100128174,-0.038757324,10.377274
1.5406418618715E13,-0.08155823,0.010803223,11.109177
1.5406423654116E13,-0.11128235,0.1375885,10.42128
1.5406428689516E13,-0.30526733,0.020111084,8.48494
1.5406433724916E13,-0.3131714,0.058441162,8.630951
1.5406438760317E13,-0.22793579,0.056259155,9.6154175
1.5406443795717E13,-0.1328125,0.050750732,10.2892
1.5406448831118E13,-0.19090271,0.025619507,10.211105
1.5406453866518E13,-0.29129028,-0.008270264,9.720367
1.5406458901918E13,-0.19424438,0.024505615,9.777481
1.5406463937319E13,-0.18278503,0.0135650635,10.254608
1.5406468972719E13,-0.1505127,-0.006439209,10.4878845
1.540647400812E13,-0.1423645,-0.012619019,10.445023